Folder: XRFLab/sample_data/data (part 2)

File: NIST 2586.txt
#FORMAT      : EMSA/MAS Spectral Data File
#VERSION     : 1.0
#TITLE       : Spectrum 27
#DATE        : 21-AUG-2025
#TIME        : 15:31
#OWNER       : XGT7200
#NPOINTS     : 4096.
#NCOLUMNS    : 1.
#XUNITS      : keV
#YUNITS      : counts
#DATATYPE    : XY
#XPERCHAN    : 0.0100000
#OFFSET      : -0.400000
#SIGNALTYPE  : EDS
#CHOFFSET    : 40.0000
#LIVETIME    : 30
#REALTIME    : 39.5498
#BEAMKV      : 50.0000
#PROBECUR    : 669000.
#MAGCAM      : 100.000
#XTILTSTGE   : 0.0
#AZIMANGLE   : 0.0
#ELEVANGLE   : 45.0
#XPOSITION mm: 0.0000
#YPOSITION mm: 0.0000
#ZPOSITION mm: 0.0000
##OXINSTPT   : 4
##OXINSTSTROB: 72.05
#SPECTRUM    : Spectral Data Starts Here
-0.40000, 0.
-0.26000, 0.
-0.12000, 0.
0.02000, 0.
0.16000, 0.
0.30000, 0.
0.44000, 32.
0.58000, 38.
0.72000, 48.
0.86000, 34.
1.00000, 39.
1.14000, 33.
1.28000, 85.
1.42000, 196.
1.56000, 227.
1.70000, 3358.
1.84000, 736.
1.98000, 74.
2.12000, 29.
2.26000, 51.
2.40000, 44.
2.54000, 40.
2.68000, 482.
2.82000, 264.
2.96000, 97.
3.10000, 32.
3.24000, 152.
3.38000, 229.
3.52000, 55.
3.66000, 1096.
3.80000, 184.
3.94000, 90.
4.08000, 111.
4.22000, 37.
4.36000, 50.
4.50000, 778.
4.64000, 117.
4.78000, 62.
4.92000, 166.
5.06000, 47.
5.20000, 56.
5.34000, 69.
5.48000, 83.
5.62000, 59.
5.76000, 81.
5.90000, 310.
6.04000, 86.
6.18000, 151.
6.32000, 7278.
6.46000, 10440.
6.60000, 183.
6.74000, 95.
6.88000, 237.
7.02000, 2403.
7.16000, 773.
7.30000, 96.
7.44000, 103.
7.58000, 67.
7.72000, 77.
7.86000, 92.
8.00000, 126.
8.14000, 155.
8.28000, 135.
8.42000, 81.
8.56000, 229.
8.70000, 195.
8.84000, 118.
8.98000, 114.
9.12000, 123.
9.26000, 120.
9.40000, 118.
9.54000, 142.
9.68000, 120.
9.82000, 125.
9.96000, 126.
10.10000, 108.
10.24000, 109.
10.38000, 141.
10.52000, 211.
10.66000, 196.
10.80000, 134.
10.94000, 145.
11.08000, 137.
11.22000, 139.
11.36000, 131.
11.50000, 142.
11.64000, 123.
11.78000, 158.
11.92000, 147.
12.06000, 134.
12.20000, 134.
12.34000, 137.
12.48000, 184.
12.62000, 274.
12.76000, 193.
12.90000, 171.
13.04000, 158.
13.18000, 141.
13.32000, 195.
13.46000, 162.
13.60000, 145.
13.74000, 153.
13.88000, 142.
14.02000, 183.
14.16000, 221.
14.30000, 146.
14.44000, 130.
14.58000, 140.
14.72000, 165.
14.86000, 172.
15.00000, 162.
15.14000, 128.
15.28000, 116.
15.42000, 142.
15.56000, 183.
15.70000, 336.
15.84000, 259.
15.98000, 156.
16.12000, 134.
16.26000, 135.
16.40000, 140.
16.54000, 141.
16.68000, 135.
16.82000, 141.
16.96000, 138.
17.10000, 124.
17.24000, 149.
17.38000, 122.
17.52000, 176.
17.66000, 211.
17.80000, 175.
17.94000, 160.
18.08000, 211.
18.22000, 257.
18.36000, 340.
18.50000, 528.
18.64000, 699.
18.78000, 810.
18.92000, 776.
19.06000, 565.
19.20000, 362.
19.34000, 279.
19.48000, 247.
19.62000, 175.
19.76000, 136.
19.90000, 210.
20.04000, 399.
20.18000, 506.
20.32000, 251.
20.46000, 139.
20.60000, 173.
20.74000, 188.
20.88000, 214.
21.02000, 239.
21.16000, 229.
21.30000, 166.
21.44000, 146.
21.58000, 145.
21.72000, 110.
21.86000, 97.
22.00000, 96.
22.14000, 88.
22.28000, 64.
22.42000, 73.
22.56000, 108.
22.70000, 142.
22.84000, 82.
22.98000, 67.
23.12000, 85.
23.26000, 66.
23.40000, 57.
23.54000, 62.
23.68000, 68.
23.82000, 77.
23.96000, 64.
24.10000, 55.
24.24000, 69.
24.38000, 62.
24.52000, 51.
24.66000, 53.
24.80000, 73.
24.94000, 56.
25.08000, 63.
25.22000, 67.
25.36000, 59.
25.50000, 69.
25.64000, 58.
25.78000, 51.
25.92000, 40.
26.06000, 46.
26.20000, 49.
26.34000, 55.
26.48000, 51.
26.62000, 43.
26.76000, 48.
26.90000, 45.
27.04000, 42.
27.18000, 47.
27.32000, 44.
27.46000, 40.
27.60000, 32.
27.74000, 56.
27.88000, 47.
28.02000, 40.
28.16000, 35.
28.30000, 32.
28.44000, 31.
28.58000, 51.
28.72000, 43.
28.86000, 36.
29.00000, 45.
29.14000, 36.
29.28000, 54.
29.42000, 41.
29.56000, 38.
29.70000, 34.
29.84000, 36.
29.98000, 23.
30.12000, 34.
30.26000, 35.
30.40000, 40.
30.54000, 35.
30.68000, 28.
30.82000, 39.
30.96000, 34.
31.10000, 33.
31.24000, 28.
31.38000, 31.
31.52000, 33.
31.66000, 28.
31.80000, 46.
31.94000, 31.
32.08000, 41.
32.22000, 32.
32.36000, 25.
32.50000, 28.
32.64000, 19.
32.78000, 19.
32.92000, 33.
33.06000, 18.
33.20000, 19.
33.34000, 15.
33.48000, 16.
33.62000, 17.
33.76000, 22.
33.90000, 17.
34.04000, 20.
34.18000, 10.
34.32000, 27.
34.46000, 22.
34.60000, 20.
34.74000, 13.
34.88000, 17.
35.02000, 14.
35.16000, 15.
35.30000, 14.
35.44000, 13.
35.58000, 15.
35.72000, 12.
35.86000, 18.
36.00000, 16.
36.14000, 14.
36.28000, 27.
36.42000, 16.
36.56000, 10.
36.70000, 10.
36.84000, 7.
36.98000, 7.
37.12000, 12.
37.26000, 14.
37.40000, 11.
37.54000, 18.
37.68000, 8.
37.82000, 9.
37.96000, 6.
38.10000, 13.
38.24000, 6.
38.38000, 8.
38.52000, 9.
38.66000, 7.
38.80000, 8.
38.94000, 2.
39.08000, 10.
39.22000, 4.
39.36000, 9.
39.50000, 8.
39.64000, 4.
39.78000, 2.
39.92000, 2.
40.06000, 3.
40.20000, 10.
40.34000, 7.
40.48000, 4.
40.55000, 0.
#ENDOFDATA   :

File: STDS standard.txt
#FORMAT      : EMSA/MAS Spectral Data File
#VERSION     : 1.0
#TITLE       : Spectrum 20
#DATE        : 21-AUG-2025
#TIME        : 15:24
#OWNER       : XGT7200
#NPOINTS     : 4096.
#NCOLUMNS    : 1.
#XUNITS      : keV
#YUNITS      : counts
#DATATYPE    : XY
#XPERCHAN    : 0.0100000
#OFFSET      : -0.400000
#SIGNALTYPE  : EDS
#CHOFFSET    : 40.0000
#LIVETIME    : 30
#REALTIME    : 39.8294
#BEAMKV      : 50.0000
#PROBECUR    : 706000.
#MAGCAM      : 100.000
#XTILTSTGE   : 0.0
#AZIMANGLE   : 0.0
#ELEVANGLE   : 45.0
#XPOSITION mm: 0.0000
#YPOSITION mm: 0.0000
#ZPOSITION mm: 0.0000
##OXINSTPT   : 4
##OXINSTSTROB: 71.96
#SPECTRUM    : Spectral Data Starts Here
-0.40000, 0.
-0.26000, 0.
-0.12000, 0.
0.02000, 0.
0.16000, 0.
0.30000, 0.
0.44000, 45.
0.58000, 34.
0.72000, 34.
0.86000, 32.
1.00000, 49.
1.14000, 38.
1.28000, 87.
1.42000, 225.
1.56000, 261.
1.70000, 3096.
1.84000, 720.
1.98000, 85.
2.12000, 37.
2.26000, 46.
2.40000, 37.
2.54000, 61.
2.68000, 473.
2.82000, 230.
2.96000, 102.
3.10000, 36.
3.24000, 254.
3.38000, 394.
3.52000, 76.
3.66000, 1542.
3.80000, 246.
3.94000, 135.
4.08000, 149.
4.22000, 30.
4.36000, 46.
4.50000, 525.
4.64000, 128.
4.78000, 71.
4.92000, 134.
5.06000, 63.
5.20000, 57.
5.34000, 83.
5.48000, 88.
5.62000, 57.
5.76000, 84.
5.90000, 357.
6.04000, 107.
6.18000, 122.
6.32000, 7893.
6.46000, 10898.
6.60000, 220.
6.74000, 109.
6.88000, 218.
7.02000, 2609.
7.16000, 780.
7.30000, 85.
7.44000, 86.
7.58000, 81.
7.72000, 74.
7.86000, 110.
8.00000, 135.
8.14000, 167.
8.28000, 102.
8.42000, 99.
8.56000, 194.
8.70000, 172.
8.84000, 117.
8.98000, 101.
9.12000, 113.
9.26000, 130.
9.40000, 121.
9.54000, 140.
9.68000, 130.
9.82000, 112.
9.96000, 118.
10.10000, 116.
10.24000, 118.
10.38000, 114.
10.52000, 163.
10.66000, 133.
10.80000, 128.
10.94000, 135.
11.08000, 139.
11.22000, 130.
11.36000, 136.
11.50000, 141.
11.64000, 137.
11.78000, 134.
11.92000, 137.
12.06000, 159.
12.20000, 142.
12.34000, 125.
12.48000, 155.
12.62000, 154.
12.76000, 174.
12.90000, 180.
13.04000, 164.
13.18000, 160.
13.32000, 222.
13.46000, 206.
13.60000, 147.
13.74000, 150.
13.88000, 139.
14.02000, 325.
14.16000, 511.
14.30000, 185.
14.44000, 141.
14.58000, 160.
14.72000, 157.
14.86000, 171.
15.00000, 148.
15.14000, 137.
15.28000, 132.
15.42000, 132.
15.56000, 187.
15.70000, 321.
15.84000, 287.
15.98000, 150.
16.12000, 151.
16.26000, 148.
16.40000, 127.
16.54000, 148.
16.68000, 143.
16.82000, 131.
16.96000, 139.
17.10000, 143.
17.24000, 147.
17.38000, 142.
17.52000, 170.
17.66000, 181.
17.80000, 152.
17.94000, 199.
18.08000, 227.
18.22000, 288.
18.36000, 314.
18.50000, 534.
18.64000, 696.
18.78000, 837.
18.92000, 770.
19.06000, 542.
19.20000, 386.
19.34000, 302.
19.48000, 212.
19.62000, 176.
19.76000, 161.
19.90000, 235.
20.04000, 407.
20.18000, 522.
20.32000, 255.
20.46000, 174.
20.60000, 159.
20.74000, 190.
20.88000, 213.
21.02000, 238.
21.16000, 209.
21.30000, 157.
21.44000, 155.
21.58000, 110.
21.72000, 107.
21.86000, 109.
22.00000, 88.
22.14000, 86.
22.28000, 80.
22.42000, 66.
22.56000, 114.
22.70000, 124.
22.84000, 88.
22.98000, 63.
23.12000, 97.
23.26000, 68.
23.40000, 71.
23.54000, 65.
23.68000, 47.
23.82000, 53.
23.96000, 65.
24.10000, 59.
24.24000, 63.
24.38000, 58.
24.52000, 61.
24.66000, 56.
24.80000, 55.
24.94000, 76.
25.08000, 77.
25.22000, 71.
25.36000, 59.
25.50000, 45.
25.64000, 66.
25.78000, 61.
25.92000, 60.
26.06000, 48.
26.20000, 45.
26.34000, 49.
26.48000, 50.
26.62000, 59.
26.76000, 52.
26.90000, 49.
27.04000, 46.
27.18000, 41.
27.32000, 45.
27.46000, 31.
27.60000, 42.
27.74000, 38.
27.88000, 35.
28.02000, 47.
28.16000, 53.
28.30000, 46.
28.44000, 46.
28.58000, 45.
28.72000, 39.
28.86000, 39.
29.00000, 28.
29.14000, 38.
29.28000, 44.
29.42000, 49.
29.56000, 42.
29.70000, 51.
29.84000, 30.
29.98000, 36.
30.12000, 22.
30.26000, 28.
30.40000, 29.
30.54000, 31.
30.68000, 29.
30.82000, 22.
30.96000, 24.
31.10000, 37.
31.24000, 30.
31.38000, 29.
31.52000, 22.
31.66000, 37.
31.80000, 35.
31.94000, 26.
32.08000, 23.
32.22000, 37.
32.36000, 23.
32.50000, 24.
32.64000, 21.
32.78000, 28.
32.92000, 20.
33.06000, 21.
33.20000, 17.
33.34000, 18.
33.48000, 15.
33.62000, 18.
33.76000, 19.
33.90000, 15.
34.04000, 23.
34.18000, 19.
34.32000, 27.
34.46000, 14.
34.60000, 19.
34.74000, 21.
34.88000, 16.
35.02000, 10.
35.16000, 17.
35.30000, 22.
35.44000, 16.
35.58000, 24.
35.72000, 11.
35.86000, 15.
36.00000, 13.
36.14000, 12.
36.28000, 12.
36.42000, 14.
36.56000, 11.
36.70000, 12.
36.84000, 12.
36.98000, 8.
37.12000, 11.
37.26000, 8.
37.40000, 13.
37.54000, 11.
37.68000, 7.
37.82000, 10.
37.96000, 11.
38.10000, 7.
38.24000, 8.
38.38000, 5.
38.52000, 11.
38.66000, 6.
38.80000, 7.
38.94000, 6.
39.08000, 4.
39.22000, 7.
39.36000, 7.
39.50000, 11.
39.64000, 3.
39.78000, 9.
39.92000, 4.
40.06000, 11.
40.20000, 2.
40.34000, 4.
40.48000, 5.
40.55000, 0.
#ENDOFDATA   :

File: Ti.txt
#FORMAT      : EMSA/MAS Spectral Data File
#VERSION     : 1.0
#TITLE       : Spectrum 5
#DATE        : 25-NOV-2025
#TIME        : 13:33
#OWNER       : XGT7200
#NPOINTS     : 4096.
#NCOLUMNS    : 1.
#XUNITS      : keV
#YUNITS      : counts
#DATATYPE    : XY
#XPERCHAN    : 0.0100000
#OFFSET      : -0.400000
#SIGNALTYPE  : EDS
#CHOFFSET    : 40.0000
#LIVETIME    : 30
#REALTIME    : 35.0515
#BEAMKV      : 30.0000
#PROBECUR    : 1.00000E+006
#MAGCAM      : 100.000
#XTILTSTGE   : 0.0
#AZIMANGLE   : 0.0
#ELEVANGLE   : 45.0
#XPOSITION mm: 0.0000
#YPOSITION mm: 0.0000
#ZPOSITION mm: 0.0000
##OXINSTPT   : 4
##OXINSTSTROB: 71.21
#SPECTRUM    : Spectral Data Starts Here
-0.40000, 0.
-0.26000, 0.
-0.12000, 0.
0.02000, 0.
0.16000, 0.
0.30000, 0.
0.44000, 9.
0.58000, 7.
0.72000, 6.
0.86000, 12.
1.00000, 49.
1.14000, 29.
1.28000, 4.
1.42000, 14.
1.56000, 14.
1.70000, 14.
1.84000, 11.
1.98000, 12.
2.12000, 14.
2.26000, 19.
2.40000, 12.
2.54000, 63.
2.68000, 5398.
2.82000, 2329.
2.96000, 91.
3.10000, 12.
3.24000, 28.
3.38000, 12.
3.52000, 16.
3.66000, 44.
3.80000, 18.
3.94000, 20.
4.08000, 24.
4.22000, 37.
4.36000, 623.
4.50000, 22225.
4.64000, 1548.
4.78000, 242.
4.92000, 2960.
5.06000, 245.
5.20000, 7.
5.34000, 5.
5.48000, 8.
5.62000, 6.
5.76000, 4.
5.90000, 7.
6.04000, 5.
6.18000, 2.
6.32000, 12.
6.46000, 17.
6.60000, 8.
6.74000, 5.
6.88000, 9.
7.02000, 9.
7.16000, 42.
7.30000, 27.
7.44000, 13.
7.58000, 11.
7.72000, 15.
7.86000, 6.
8.00000, 5.
8.14000, 15.
8.28000, 10.
8.42000, 21.
8.56000, 5.
8.70000, 7.
8.84000, 8.
8.98000, 73.
9.12000, 43.
9.26000, 20.
9.40000, 20.
9.54000, 17.
9.68000, 19.
9.82000, 6.
9.96000, 12.
10.10000, 11.
10.24000, 12.
10.38000, 5.
10.52000, 8.
10.66000, 16.
10.80000, 14.
10.94000, 12.
11.08000, 13.
11.22000, 9.
11.36000, 7.
11.50000, 17.
11.64000, 12.
11.78000, 15.
11.92000, 16.
12.06000, 11.
12.20000, 10.
12.34000, 5.
12.48000, 15.
12.62000, 10.
12.76000, 9.
12.90000, 12.
13.04000, 23.
13.18000, 11.
13.32000, 7.
13.46000, 14.
13.60000, 8.
13.74000, 10.
13.88000, 13.
14.02000, 13.
14.16000, 4.
14.30000, 7.
14.44000, 16.
14.58000, 4.
14.72000, 5.
14.86000, 13.
15.00000, 3.
15.14000, 14.
15.28000, 5.
15.42000, 8.
15.56000, 9.
15.70000, 16.
15.84000, 8.
15.98000, 5.
16.12000, 12.
16.26000, 13.
16.40000, 10.
16.54000, 5.
16.68000, 3.
16.82000, 11.
16.96000, 7.
17.10000, 8.
17.24000, 11.
17.38000, 5.
17.52000, 4.
17.66000, 4.
17.80000, 11.
17.94000, 4.
18.08000, 2.
18.22000, 3.
18.36000, 4.
18.50000, 9.
18.64000, 4.
18.78000, 10.
18.92000, 13.
19.06000, 7.
19.20000, 7.
19.34000, 6.
19.48000, 7.
19.62000, 3.
19.76000, 4.
19.90000, 10.
20.04000, 15.
20.18000, 17.
20.32000, 9.
20.46000, 5.
20.60000, 3.
20.74000, 5.
20.88000, 6.
21.02000, 4.
21.16000, 3.
21.30000, 7.
21.44000, 5.
21.58000, 2.
21.72000, 3.
21.86000, 4.
22.00000, 1.
22.14000, 0.
22.28000, 3.
22.42000, 3.
22.56000, 3.
22.70000, 1.
22.84000, 3.
22.98000, 2.
23.12000, 1.
23.26000, 3.
23.40000, 4.
23.54000, 1.
23.68000, 4.
23.82000, 2.
23.96000, 2.
24.10000, 2.
24.24000, 3.
24.38000, 4.
24.52000, 1.
24.66000, 2.
24.80000, 4.
24.94000, 2.
25.08000, 1.
25.22000, 4.
25.36000, 0.
25.50000, 2.
25.64000, 0.
25.78000, 0.
25.92000, 0.
26.06000, 1.
26.20000, 4.
26.34000, 0.
26.48000, 2.
26.62000, 0.
26.76000, 0.
26.90000, 1.
27.04000, 1.
27.18000, 1.
27.32000, 1.
27.46000, 0.
27.60000, 1.
27.74000, 0.
27.88000, 0.
28.02000, 1.
28.16000, 0.
28.30000, 0.
28.44000, 0.
28.58000, 0.
28.72000, 0.
28.86000, 0.
29.00000, 0.
29.14000, 0.
29.28000, 0.
29.42000, 0.
29.56000, 0.
29.70000, 0.
29.84000, 0.
29.98000, 0.
30.12000, 0.
30.26000, 0.
30.40000, 0.
30.54000, 0.
30.68000, 0.
30.82000, 0.
30.96000, 0.
31.10000, 0.
31.24000, 0.
31.38000, 0.
31.52000, 0.
31.66000, 0.
31.80000, 0.
31.94000, 0.
32.08000, 0.
32.22000, 0.
32.36000, 0.
32.50000, 0.
32.64000, 0.
32.78000, 0.
32.92000, 0.
33.06000, 0.
33.20000, 0.
33.34000, 0.
33.48000, 0.
33.62000, 0.
33.76000, 0.
33.90000, 0.
34.04000, 0.
34.18000, 0.
34.32000, 0.
34.46000, 0.
34.60000, 0.
34.74000, 0.
34.88000, 0.
35.02000, 0.
35.16000, 0.
35.30000, 0.
35.44000, 0.
35.58000, 0.
35.72000, 0.
35.86000, 0.
36.00000, 0.
36.14000, 0.
36.28000, 0.
36.42000, 0.
36.56000, 0.
36.70000, 0.
36.84000, 0.
36.98000, 0.
37.12000, 0.
37.26000, 0.
37.40000, 0.
37.54000, 0.
37.68000, 0.
37.82000, 0.
37.96000, 0.
38.10000, 0.
38.24000, 0.
38.38000, 0.
38.52000, 0.
38.66000, 0.
38.80000, 0.
38.94000, 0.
39.08000, 0.
39.22000, 0.
39.36000, 0.
39.50000, 0.
39.64000, 0.
39.78000, 0.
39.92000, 0.
40.06000, 0.
40.20000, 0.
40.34000, 0.
40.48000, 0.
40.55000, 0.
#ENDOFDATA   :