Folder: XRFLab/sample_data/data

Note: sample_data/data/fwhm_calibration.json
{
  "model_type": "linear",
  "parameters": {
    "intercept": 0.08834299951623649,
    "slope": 0.008894135323560908
  },
  "parameter_errors": {
    "intercept": 0.0015657689335248027,
    "slope": 0.0001746258352284803
  },
  "r_squared": 0.9950136642139851,
  "rmse": 0.002529172900579971,
  "aic": -175.3958883937536,
  "bic": -173.9797879915492,
  "n_peaks": 15,
  "energy_range": [
    1.2582758399394123,
    17.646747530811464
  ],
  "calibration_date": "2025-11-26T07:56:06.172707"
}

Note: README.md
# FpXrF
fundamental parameters GUI for X-ray fluoresence spectroscopy

File: Al.txt
#FORMAT      : EMSA/MAS Spectral Data File
#VERSION     : 1.0
#TITLE       : Spectrum 2
#DATE        : 25-NOV-2025
#TIME        : 13:30
#OWNER       : XGT7200
#NPOINTS     : 4096.
#NCOLUMNS    : 1.
#XUNITS      : keV
#YUNITS      : counts
#DATATYPE    : XY
#XPERCHAN    : 0.0100000
#OFFSET      : -0.400000
#SIGNALTYPE  : EDS
#CHOFFSET    : 40.0000
#LIVETIME    : 30
#REALTIME    : 34.2373
#BEAMKV      : 30.0000
#PROBECUR    : 1.00000E+006
#MAGCAM      : 100.000
#XTILTSTGE   : 0.0
#AZIMANGLE   : 0.0
#ELEVANGLE   : 45.0
#XPOSITION mm: 0.0000
#YPOSITION mm: 0.0000
#ZPOSITION mm: 0.0000
##OXINSTPT   : 4
##OXINSTSTROB: 71.26
#SPECTRUM    : Spectral Data Starts Here
-0.40000, 0.
-0.26000, 0.
-0.12000, 0.
0.02000, 0.
0.16000, 0.
0.30000, 0.
0.44000, 4.
0.58000, 6.
0.72000, 9.
0.86000, 10.
1.00000, 22.
1.14000, 15.
1.28000, 21.
1.42000, 1018.
1.56000, 1287.
1.70000, 240.
1.84000, 47.
1.98000, 5.
2.12000, 3.
2.26000, 9.
2.40000, 7.
2.54000, 15.
2.68000, 1537.
2.82000, 85.
2.96000, 12.
3.10000, 11.
3.24000, 4.
3.38000, 8.
3.52000, 1.
3.66000, 3.
3.80000, 2.
3.94000, 4.
4.08000, 4.
4.22000, 11.
4.36000, 12.
4.50000, 15.
4.64000, 4.
4.78000, 9.
4.92000, 6.
5.06000, 19.
5.20000, 56.
5.34000, 15.
5.48000, 12.
5.62000, 8.
5.76000, 9.
5.90000, 5.
6.04000, 15.
6.18000, 10.
6.32000, 14.
6.46000, 9.
6.60000, 12.
6.74000, 27.
6.88000, 33.
7.02000, 42.
7.16000, 5.
7.30000, 20.
7.44000, 12.
7.58000, 19.
7.72000, 20.
7.86000, 15.
8.00000, 32.
8.14000, 42.
8.28000, 17.
8.42000, 20.
8.56000, 16.
8.70000, 18.
8.84000, 15.
8.98000, 17.
9.12000, 31.
9.26000, 30.
9.40000, 35.
9.54000, 31.
9.68000, 26.
9.82000, 34.
9.96000, 31.
10.10000, 25.
10.24000, 41.
10.38000, 30.
10.52000, 22.
10.66000, 23.
10.80000, 34.
10.94000, 28.
11.08000, 24.
11.22000, 27.
11.36000, 25.
11.50000, 23.
11.64000, 35.
11.78000, 34.
11.92000, 29.
12.06000, 36.
12.20000, 27.
12.34000, 27.
12.48000, 25.
12.62000, 34.
12.76000, 29.
12.90000, 41.
13.04000, 34.
13.18000, 22.
13.32000, 27.
13.46000, 29.
13.60000, 35.
13.74000, 22.
13.88000, 26.
14.02000, 34.
14.16000, 28.
14.30000, 27.
14.44000, 25.
14.58000, 22.
14.72000, 29.
14.86000, 31.
15.00000, 20.
15.14000, 25.
15.28000, 14.
15.42000, 22.
15.56000, 15.
15.70000, 22.
15.84000, 25.
15.98000, 27.
16.12000, 22.
16.26000, 22.
16.40000, 25.
16.54000, 28.
16.68000, 16.
16.82000, 27.
16.96000, 23.
17.10000, 30.
17.24000, 27.
17.38000, 34.
17.52000, 29.
17.66000, 25.
17.80000, 21.
17.94000, 31.
18.08000, 29.
18.22000, 25.
18.36000, 27.
18.50000, 43.
18.64000, 60.
18.78000, 46.
18.92000, 43.
19.06000, 30.
19.20000, 17.
19.34000, 26.
19.48000, 17.
19.62000, 27.
19.76000, 18.
19.90000, 20.
20.04000, 31.
20.18000, 40.
20.32000, 27.
20.46000, 17.
20.60000, 20.
20.74000, 24.
20.88000, 22.
21.02000, 17.
21.16000, 20.
21.30000, 26.
21.44000, 21.
21.58000, 14.
21.72000, 9.
21.86000, 10.
22.00000, 5.
22.14000, 8.
22.28000, 13.
22.42000, 10.
22.56000, 13.
22.70000, 15.
22.84000, 7.
22.98000, 7.
23.12000, 8.
23.26000, 7.
23.40000, 10.
23.54000, 10.
23.68000, 6.
23.82000, 9.
23.96000, 8.
24.10000, 6.
24.24000, 9.
24.38000, 2.
24.52000, 3.
24.66000, 2.
24.80000, 5.
24.94000, 4.
25.08000, 6.
25.22000, 3.
25.36000, 10.
25.50000, 3.
25.64000, 3.
25.78000, 3.
25.92000, 2.
26.06000, 2.
26.20000, 2.
26.34000, 0.
26.48000, 1.
26.62000, 4.
26.76000, 2.
26.90000, 4.
27.04000, 0.
27.18000, 1.
27.32000, 0.
27.46000, 2.
27.60000, 0.
27.74000, 0.
27.88000, 0.
28.02000, 0.
28.16000, 1.
28.30000, 0.
28.44000, 0.
28.58000, 0.
28.72000, 0.
28.86000, 1.
29.00000, 0.
29.14000, 0.
29.28000, 1.
29.42000, 0.
29.56000, 1.
29.70000, 0.
29.84000, 0.
29.98000, 0.
30.12000, 0.
30.26000, 0.
30.40000, 0.
30.54000, 0.
30.68000, 0.
30.82000, 0.
30.96000, 0.
31.10000, 0.
31.24000, 0.
31.38000, 0.
31.52000, 0.
31.66000, 0.
31.80000, 0.
31.94000, 0.
32.08000, 0.
32.22000, 0.
32.36000, 0.
32.50000, 0.
32.64000, 0.
32.78000, 0.
32.92000, 0.
33.06000, 0.
33.20000, 0.
33.34000, 0.
33.48000, 0.
33.62000, 0.
33.76000, 0.
33.90000, 0.
34.04000, 0.
34.18000, 0.
34.32000, 0.
34.46000, 0.
34.60000, 0.
34.74000, 0.
34.88000, 1.
35.02000, 0.
35.16000, 0.
35.30000, 1.
35.44000, 0.
35.58000, 0.
35.72000, 0.
35.86000, 0.
36.00000, 0.
36.14000, 0.
36.28000, 0.
36.42000, 0.
36.56000, 0.
36.70000, 0.
36.84000, 0.
36.98000, 0.
37.12000, 0.
37.26000, 0.
37.40000, 0.
37.54000, 0.
37.68000, 0.
37.82000, 0.
37.96000, 0.
38.10000, 0.
38.24000, 0.
38.38000, 0.
38.52000, 0.
38.66000, 0.
38.80000, 0.
38.94000, 0.
39.08000, 0.
39.22000, 0.
39.36000, 0.
39.50000, 0.
39.64000, 0.
39.78000, 0.
39.92000, 0.
40.06000, 0.
40.20000, 0.
40.34000, 0.
40.48000, 0.
40.55000, 0.
#ENDOFDATA   :

File: Cu.txt
#FORMAT      : EMSA/MAS Spectral Data File
#VERSION     : 1.0
#TITLE       : Spectrum 1
#DATE        : 25-NOV-2025
#TIME        : 13:29
#OWNER       : XGT7200
#NPOINTS     : 4096.
#NCOLUMNS    : 1.
#XUNITS      : keV
#YUNITS      : counts
#DATATYPE    : XY
#XPERCHAN    : 0.0100000
#OFFSET      : -0.400000
#SIGNALTYPE  : EDS
#CHOFFSET    : 40.0000
#LIVETIME    : 30
#REALTIME    : 37.3416
#BEAMKV      : 30.0000
#PROBECUR    : 1.00000E+006
#MAGCAM      : 100.000
#XTILTSTGE   : 0.0
#AZIMANGLE   : 0.0
#ELEVANGLE   : 45.0
#XPOSITION mm: 0.0000
#YPOSITION mm: 0.0000
#ZPOSITION mm: 0.0000
##OXINSTPT   : 4
##OXINSTSTROB: 71.42
#SPECTRUM    : Spectral Data Starts Here
-0.40000, 0.
-0.26000, 0.
-0.12000, 0.
0.02000, 0.
0.16000, 0.
0.30000, 0.
0.44000, 5.
0.58000, 2.
0.72000, 4.
0.86000, 16.
1.00000, 15.
1.14000, 1.
1.28000, 7.
1.42000, 6.
1.56000, 5.
1.70000, 4.
1.84000, 6.
1.98000, 9.
2.12000, 4.
2.26000, 15.
2.40000, 10.
2.54000, 5.
2.68000, 44.
2.82000, 25.
2.96000, 72.
3.10000, 45.
3.24000, 9.
3.38000, 7.
3.52000, 23.
3.66000, 13.
3.80000, 10.
3.94000, 5.
4.08000, 9.
4.22000, 4.
4.36000, 5.
4.50000, 12.
4.64000, 7.
4.78000, 10.
4.92000, 124.
5.06000, 33.
5.20000, 13.
5.34000, 16.
5.48000, 11.
5.62000, 15.
5.76000, 139.
5.90000, 53.
6.04000, 34.
6.18000, 37.
6.32000, 87.
6.46000, 22.
6.60000, 20.
6.74000, 23.
6.88000, 21.
7.02000, 37.
7.16000, 36.
7.30000, 27.
7.44000, 39.
7.58000, 169.
7.72000, 180.
7.86000, 1291.
8.00000, 27606.
8.14000, 10649.
8.28000, 137.
8.42000, 92.
8.56000, 111.
8.70000, 208.
8.84000, 3287.
8.98000, 2503.
9.12000, 42.
9.26000, 4.
9.40000, 1.
9.54000, 2.
9.68000, 2.
9.82000, 2.
9.96000, 6.
10.10000, 4.
10.24000, 13.
10.38000, 12.
10.52000, 9.
10.66000, 0.
10.80000, 6.
10.94000, 4.
11.08000, 11.
11.22000, 7.
11.36000, 1.
11.50000, 8.
11.64000, 8.
11.78000, 1.
11.92000, 3.
12.06000, 8.
12.20000, 3.
12.34000, 6.
12.48000, 10.
12.62000, 7.
12.76000, 6.
12.90000, 8.
13.04000, 8.
13.18000, 7.
13.32000, 8.
13.46000, 8.
13.60000, 3.
13.74000, 6.
13.88000, 1.
14.02000, 6.
14.16000, 6.
14.30000, 10.
14.44000, 10.
14.58000, 4.
14.72000, 4.
14.86000, 5.
15.00000, 4.
15.14000, 7.
15.28000, 7.
15.42000, 1.
15.56000, 3.
15.70000, 8.
15.84000, 17.
15.98000, 81.
16.12000, 171.
16.26000, 30.
16.40000, 6.
16.54000, 6.
16.68000, 6.
16.82000, 26.
16.96000, 56.
17.10000, 21.
17.24000, 4.
17.38000, 10.
17.52000, 7.
17.66000, 9.
17.80000, 5.
17.94000, 4.
18.08000, 6.
18.22000, 5.
18.36000, 8.
18.50000, 8.
18.64000, 11.
18.78000, 4.
18.92000, 5.
19.06000, 4.
19.20000, 6.
19.34000, 3.
19.48000, 4.
19.62000, 3.
19.76000, 3.
19.90000, 4.
20.04000, 9.
20.18000, 11.
20.32000, 10.
20.46000, 3.
20.60000, 5.
20.74000, 3.
20.88000, 2.
21.02000, 2.
21.16000, 4.
21.30000, 3.
21.44000, 2.
21.58000, 4.
21.72000, 3.
21.86000, 3.
22.00000, 3.
22.14000, 1.
22.28000, 0.
22.42000, 3.
22.56000, 0.
22.70000, 3.
22.84000, 0.
22.98000, 2.
23.12000, 7.
23.26000, 1.
23.40000, 0.
23.54000, 0.
23.68000, 0.
23.82000, 4.
23.96000, 1.
24.10000, 2.
24.24000, 0.
24.38000, 1.
24.52000, 1.
24.66000, 2.
24.80000, 1.
24.94000, 0.
25.08000, 1.
25.22000, 1.
25.36000, 0.
25.50000, 0.
25.64000, 0.
25.78000, 1.
25.92000, 0.
26.06000, 1.
26.20000, 0.
26.34000, 0.
26.48000, 1.
26.62000, 0.
26.76000, 0.
26.90000, 0.
27.04000, 0.
27.18000, 0.
27.32000, 0.
27.46000, 1.
27.60000, 0.
27.74000, 0.
27.88000, 0.
28.02000, 1.
28.16000, 0.
28.30000, 1.
28.44000, 0.
28.58000, 0.
28.72000, 0.
28.86000, 0.
29.00000, 0.
29.14000, 0.
29.28000, 0.
29.42000, 1.
29.56000, 0.
29.70000, 0.
29.84000, 0.
29.98000, 0.
30.12000, 0.
30.26000, 0.
30.40000, 0.
30.54000, 0.
30.68000, 0.
30.82000, 0.
30.96000, 0.
31.10000, 1.
31.24000, 0.
31.38000, 0.
31.52000, 0.
31.66000, 0.
31.80000, 0.
31.94000, 0.
32.08000, 0.
32.22000, 0.
32.36000, 0.
32.50000, 0.
32.64000, 0.
32.78000, 0.
32.92000, 0.
33.06000, 0.
33.20000, 0.
33.34000, 0.
33.48000, 0.
33.62000, 0.
33.76000, 0.
33.90000, 0.
34.04000, 0.
34.18000, 0.
34.32000, 0.
34.46000, 0.
34.60000, 0.
34.74000, 0.
34.88000, 0.
35.02000, 0.
35.16000, 0.
35.30000, 0.
35.44000, 1.
35.58000, 0.
35.72000, 0.
35.86000, 0.
36.00000, 0.
36.14000, 0.
36.28000, 0.
36.42000, 0.
36.56000, 0.
36.70000, 0.
36.84000, 0.
36.98000, 0.
37.12000, 0.
37.26000, 0.
37.40000, 0.
37.54000, 0.
37.68000, 0.
37.82000, 0.
37.96000, 0.
38.10000, 0.
38.24000, 0.
38.38000, 0.
38.52000, 0.
38.66000, 0.
38.80000, 0.
38.94000, 0.
39.08000, 0.
39.22000, 0.
39.36000, 0.
39.50000, 0.
39.64000, 0.
39.78000, 0.
39.92000, 0.
40.06000, 0.
40.20000, 0.
40.34000, 0.
40.48000, 0.
40.55000, 0.
#ENDOFDATA   :

File: cubic zirconia.txt
#FORMAT      : EMSA/MAS Spectral Data File
#VERSION     : 1.0
#TITLE       : Spectrum 1
#DATE        : 25-NOV-2025
#TIME        : 13:48
#OWNER       : XGT7200
#NPOINTS     : 4096.
#NCOLUMNS    : 1.
#XUNITS      : keV
#YUNITS      : counts
#DATATYPE    : XY
#XPERCHAN    : 0.0100000
#OFFSET      : -0.400000
#SIGNALTYPE  : EDS
#CHOFFSET    : 40.0000
#LIVETIME    : 30
#REALTIME    : 39.8817
#BEAMKV      : 30.0000
#PROBECUR    : 518000.
#MAGCAM      : 100.000
#XTILTSTGE   : 0.0
#AZIMANGLE   : 0.0
#ELEVANGLE   : 45.0
#XPOSITION mm: 0.0000
#YPOSITION mm: 0.0000
#ZPOSITION mm: 0.0000
##OXINSTPT   : 4
##OXINSTSTROB: 71.75
#SPECTRUM    : Spectral Data Starts Here
-0.40000, 0.
-0.26000, 0.
-0.12000, 0.
0.02000, 0.
0.16000, 0.
0.30000, 0.
0.44000, 44.
0.58000, 45.
0.72000, 41.
0.86000, 55.
1.00000, 38.
1.14000, 23.
1.28000, 20.
1.42000, 34.
1.56000, 34.
1.70000, 151.
1.84000, 464.
1.98000, 3447.
2.12000, 4355.
2.26000, 264.
2.40000, 39.
2.54000, 35.
2.68000, 21.
2.82000, 23.
2.96000, 14.
3.10000, 5.
3.24000, 9.
3.38000, 4.
3.52000, 7.
3.66000, 11.
3.80000, 4.
3.94000, 6.
4.08000, 17.
4.22000, 15.
4.36000, 9.
4.50000, 11.
4.64000, 8.
4.78000, 7.
4.92000, 7.
5.06000, 7.
5.20000, 7.
5.34000, 12.
5.48000, 20.
5.62000, 46.
5.76000, 610.
5.90000, 158.
6.04000, 28.
6.18000, 12.
6.32000, 26.
6.46000, 20.
6.60000, 15.
6.74000, 24.
6.88000, 24.
7.02000, 30.
7.16000, 39.
7.30000, 27.
7.44000, 32.
7.58000, 35.
7.72000, 51.
7.86000, 401.
8.00000, 187.
8.14000, 56.
8.28000, 46.
8.42000, 44.
8.56000, 39.
8.70000, 39.
8.84000, 69.
8.98000, 287.
9.12000, 168.
9.26000, 192.
9.40000, 255.
9.54000, 57.
9.68000, 73.
9.82000, 62.
9.96000, 64.
10.10000, 47.
10.24000, 55.
10.38000, 64.
10.52000, 104.
10.66000, 53.
10.80000, 78.
10.94000, 58.
11.08000, 58.
11.22000, 67.
11.36000, 57.
11.50000, 117.
11.64000, 130.
11.78000, 64.
11.92000, 63.
12.06000, 51.
12.20000, 47.
12.34000, 43.
12.48000, 39.
12.62000, 37.
12.76000, 33.
12.90000, 58.
13.04000, 61.
13.18000, 71.
13.32000, 49.
13.46000, 41.
13.60000, 66.
13.74000, 48.
13.88000, 40.
14.02000, 50.
14.16000, 65.
14.30000, 55.
14.44000, 55.
14.58000, 103.
14.72000, 831.
14.86000, 5382.
15.00000, 4372.
15.14000, 456.
15.28000, 131.
15.42000, 267.
15.56000, 3777.
15.70000, 15183.
15.84000, 8501.
15.98000, 597.
16.12000, 86.
16.26000, 52.
16.40000, 56.
16.54000, 223.
16.68000, 1032.
16.82000, 557.
16.96000, 207.
17.10000, 134.
17.24000, 40.
17.38000, 86.
17.52000, 793.
17.66000, 1804.
17.80000, 597.
17.94000, 293.
18.08000, 104.
18.22000, 16.
18.36000, 7.
18.50000, 8.
18.64000, 3.
18.78000, 7.
18.92000, 8.
19.06000, 7.
19.20000, 8.
19.34000, 5.
19.48000, 7.
19.62000, 10.
19.76000, 10.
19.90000, 6.
20.04000, 8.
20.18000, 11.
20.32000, 9.
20.46000, 2.
20.60000, 1.
20.74000, 7.
20.88000, 4.
21.02000, 3.
21.16000, 3.
21.30000, 3.
21.44000, 3.
21.58000, 2.
21.72000, 1.
21.86000, 1.
22.00000, 2.
22.14000, 2.
22.28000, 3.
22.42000, 2.
22.56000, 3.
22.70000, 0.
22.84000, 2.
22.98000, 4.
23.12000, 3.
23.26000, 2.
23.40000, 1.
23.54000, 1.
23.68000, 3.
23.82000, 5.
23.96000, 5.
24.10000, 5.
24.24000, 3.
24.38000, 0.
24.52000, 4.
24.66000, 4.
24.80000, 4.
24.94000, 3.
25.08000, 3.
25.22000, 4.
25.36000, 5.
25.50000, 2.
25.64000, 1.
25.78000, 2.
25.92000, 1.
26.06000, 0.
26.20000, 2.
26.34000, 2.
26.48000, 2.
26.62000, 2.
26.76000, 1.
26.90000, 4.
27.04000, 4.
27.18000, 0.
27.32000, 0.
27.46000, 1.
27.60000, 2.
27.74000, 2.
27.88000, 2.
28.02000, 1.
28.16000, 2.
28.30000, 2.
28.44000, 0.
28.58000, 2.
28.72000, 0.
28.86000, 1.
29.00000, 1.
29.14000, 0.
29.28000, 1.
29.42000, 2.
29.56000, 6.
29.70000, 8.
29.84000, 12.
29.98000, 5.
30.12000, 3.
30.26000, 1.
30.40000, 12.
30.54000, 30.
30.68000, 48.
30.82000, 21.
30.96000, 3.
31.10000, 2.
31.24000, 17.
31.38000, 57.
31.52000, 54.
31.66000, 23.
31.80000, 5.
31.94000, 0.
32.08000, 3.
32.22000, 2.
32.36000, 10.
32.50000, 12.
32.64000, 15.
32.78000, 7.
32.92000, 2.
33.06000, 4.
33.20000, 6.
33.34000, 13.
33.48000, 14.
33.62000, 5.
33.76000, 1.
33.90000, 1.
34.04000, 1.
34.18000, 0.
34.32000, 1.
34.46000, 1.
34.60000, 0.
34.74000, 0.
34.88000, 0.
35.02000, 0.
35.16000, 0.
35.30000, 0.
35.44000, 2.
35.58000, 0.
35.72000, 0.
35.86000, 0.
36.00000, 0.
36.14000, 0.
36.28000, 0.
36.42000, 0.
36.56000, 0.
36.70000, 0.
36.84000, 0.
36.98000, 0.
37.12000, 0.
37.26000, 0.
37.40000, 0.
37.54000, 0.
37.68000, 0.
37.82000, 0.
37.96000, 0.
38.10000, 0.
38.24000, 0.
38.38000, 0.
38.52000, 0.
38.66000, 0.
38.80000, 0.
38.94000, 0.
39.08000, 0.
39.22000, 0.
39.36000, 0.
39.50000, 0.
39.64000, 0.
39.78000, 0.
39.92000, 0.
40.06000, 0.
40.20000, 0.
40.34000, 0.
40.48000, 0.
40.55000, 0.
#ENDOFDATA   :

File: Fe.txt
#FORMAT      : EMSA/MAS Spectral Data File
#VERSION     : 1.0
#TITLE       : Spectrum 6
#DATE        : 25-NOV-2025
#TIME        : 13:34
#OWNER       : XGT7200
#NPOINTS     : 4096.
#NCOLUMNS    : 1.
#XUNITS      : keV
#YUNITS      : counts
#DATATYPE    : XY
#XPERCHAN    : 0.0100000
#OFFSET      : -0.400000
#SIGNALTYPE  : EDS
#CHOFFSET    : 40.0000
#LIVETIME    : 30
#REALTIME    : 36.4027
#BEAMKV      : 30.0000
#PROBECUR    : 1.00000E+006
#MAGCAM      : 100.000
#XTILTSTGE   : 0.0
#AZIMANGLE   : 0.0
#ELEVANGLE   : 45.0
#XPOSITION mm: 0.0000
#YPOSITION mm: 0.0000
#ZPOSITION mm: 0.0000
##OXINSTPT   : 4
##OXINSTSTROB: 71.25
##OXINSTELEMS: 13,14,16,17,24,26,34,37,45,48,57,91
##OXINSTLABEL: 14, 1.740, Si
##OXINSTLABEL: 26, 6.404, Fe
##OXINSTLABEL: 26, 7.058, Fe
##OXINSTLABEL: 26, 0.705, Fe
##OXINSTLABEL: 26, 0.628, Fe
##OXINSTLABEL: 48, 23.174, Cd
##OXINSTLABEL: 48, 26.096, Cd
##OXINSTLABEL: 48, 26.644, Cd
##OXINSTLABEL: 48, 3.134, Cd
##OXINSTLABEL: 48, 3.317, Cd
##OXINSTLABEL: 48, 2.957, Cd
##OXINSTLABEL: 48, 3.951, Cd
##OXINSTLABEL: 48, 2.767, Cd
##OXINSTLABEL: 24, 5.415, Cr
##OXINSTLABEL: 24, 5.947, Cr
##OXINSTLABEL: 24, 0.573, Cr
##OXINSTLABEL: 24, 0.510, Cr
##OXINSTLABEL: 13, 1.487, Al
##OXINSTLABEL: 34, 11.223, Se
##OXINSTLABEL: 34, 12.496, Se
##OXINSTLABEL: 34, 1.379, Se
##OXINSTLABEL: 34, 1.245, Se
##OXINSTLABEL: 34, 1.204, Se
##OXINSTLABEL: 45, 20.216, Rh
##OXINSTLABEL: 45, 22.724, Rh
##OXINSTLABEL: 45, 23.173, Rh
##OXINSTLABEL: 45, 2.697, Rh
##OXINSTLABEL: 45, 2.834, Rh
##OXINSTLABEL: 45, 2.519, Rh
##OXINSTLABEL: 45, 3.364, Rh
##OXINSTLABEL: 45, 2.377, Rh
##OXINSTLABEL: 91, 13.291, Pa
##OXINSTLABEL: 91, 16.702, Pa
##OXINSTLABEL: 91, 16.025, Pa
##OXINSTLABEL: 91, 14.947, Pa
##OXINSTLABEL: 91, 19.569, Pa
##OXINSTLABEL: 91, 19.872, Pa
##OXINSTLABEL: 91, 11.366, Pa
##OXINSTLABEL: 91, 3.083, Pa
##OXINSTLABEL: 91, 3.240, Pa
##OXINSTLABEL: 91, 3.466, Pa
##OXINSTLABEL: 91, 2.388, Pa
##OXINSTLABEL: 91, 4.261, Pa
##OXINSTLABEL: 16, 2.308, S
##OXINSTLABEL: 16, 2.464, S
##OXINSTLABEL: 57, 33.442, La
##OXINSTLABEL: 57, 33.035, La
##OXINSTLABEL: 57, 37.802, La
##OXINSTLABEL: 57, 38.731, La
##OXINSTLABEL: 57, 4.651, La
##OXINSTLABEL: 57, 5.042, La
##OXINSTLABEL: 57, 5.384, La
##OXINSTLABEL: 57, 4.525, La
##OXINSTLABEL: 57, 5.789, La
##OXINSTLABEL: 57, 6.060, La
##OXINSTLABEL: 57, 4.125, La
##OXINSTLABEL: 57, 0.833, La
##OXINSTLABEL: 57, 1.026, La
##OXINSTLABEL: 57, 0.638, La
##OXINSTLABEL: 17, 2.622, Cl
##OXINSTLABEL: 17, 2.816, Cl
##OXINSTLABEL: 17, 0.184, Cl
##OXINSTLABEL: 37, 13.396, Rb
##OXINSTLABEL: 37, 14.962, Rb
##OXINSTLABEL: 37, 1.694, Rb
##OXINSTLABEL: 37, 1.542, Rb
##OXINSTLABEL: 37, 1.482, Rb
#SPECTRUM    : Spectral Data Starts Here
-0.40000, 0.
-0.26000, 0.
-0.12000, 0.
0.02000, 0.
0.16000, 0.
0.30000, 0.
0.44000, 3.
0.58000, 0.
0.72000, 3.
0.86000, 0.
1.00000, 4.
1.14000, 2.
1.28000, 0.
1.42000, 1.
1.56000, 4.
1.70000, 24.
1.84000, 11.
1.98000, 6.
2.12000, 8.
2.26000, 15.
2.40000, 7.
2.54000, 7.
2.68000, 40.
2.82000, 23.
2.96000, 10.
3.10000, 135.
3.24000, 18.
3.38000, 10.
3.52000, 4.
3.66000, 13.
3.80000, 6.
3.94000, 10.
4.08000, 8.
4.22000, 6.
4.36000, 44.
4.50000, 43.
4.64000, 130.
4.78000, 28.
4.92000, 20.
5.06000, 8.
5.20000, 25.
5.34000, 146.
5.48000, 91.
5.62000, 26.
5.76000, 17.
5.90000, 57.
6.04000, 54.
6.18000, 256.
6.32000, 13665.
6.46000, 19842.
6.60000, 238.
6.74000, 72.
6.88000, 256.
7.02000, 4002.
7.16000, 1198.
7.30000, 2.
7.44000, 5.
7.58000, 6.
7.72000, 4.
7.86000, 1.
8.00000, 3.
8.14000, 12.
8.28000, 31.
8.42000, 7.
8.56000, 2.
8.70000, 4.
8.84000, 8.
8.98000, 4.
9.12000, 3.
9.26000, 10.
9.40000, 14.
9.54000, 5.
9.68000, 5.
9.82000, 11.
9.96000, 3.
10.10000, 4.
10.24000, 5.
10.38000, 6.
10.52000, 4.
10.66000, 5.
10.80000, 13.
10.94000, 7.
11.08000, 7.
11.22000, 27.
11.36000, 6.
11.50000, 2.
11.64000, 6.
11.78000, 3.
11.92000, 9.
12.06000, 12.
12.20000, 13.
12.34000, 6.
12.48000, 13.
12.62000, 20.
12.76000, 115.
12.90000, 74.
13.04000, 8.
13.18000, 5.
13.32000, 18.
13.46000, 49.
13.60000, 18.
13.74000, 5.
13.88000, 6.
14.02000, 7.
14.16000, 11.
14.30000, 5.
14.44000, 7.
14.58000, 10.
14.72000, 3.
14.86000, 9.
15.00000, 4.
15.14000, 6.
15.28000, 4.
15.42000, 4.
15.56000, 6.
15.70000, 5.
15.84000, 6.
15.98000, 5.
16.12000, 7.
16.26000, 6.
16.40000, 8.
16.54000, 4.
16.68000, 5.
16.82000, 2.
16.96000, 1.
17.10000, 7.
17.24000, 10.
17.38000, 4.
17.52000, 4.
17.66000, 6.
17.80000, 6.
17.94000, 11.
18.08000, 4.
18.22000, 11.
18.36000, 6.
18.50000, 6.
18.64000, 5.
18.78000, 8.
18.92000, 6.
19.06000, 6.
19.20000, 4.
19.34000, 5.
19.48000, 3.
19.62000, 1.
19.76000, 2.
19.90000, 6.
20.04000, 8.
20.18000, 22.
20.32000, 3.
20.46000, 1.
20.60000, 5.
20.74000, 4.
20.88000, 4.
21.02000, 3.
21.16000, 4.
21.30000, 2.
21.44000, 2.
21.58000, 6.
21.72000, 0.
21.86000, 0.
22.00000, 2.
22.14000, 1.
22.28000, 4.
22.42000, 5.
22.56000, 2.
22.70000, 3.
22.84000, 6.
22.98000, 2.
23.12000, 1.
23.26000, 3.
23.40000, 0.
23.54000, 2.
23.68000, 1.
23.82000, 2.
23.96000, 0.
24.10000, 2.
24.24000, 1.
24.38000, 1.
24.52000, 1.
24.66000, 1.
24.80000, 1.
24.94000, 0.
25.08000, 0.
25.22000, 1.
25.36000, 1.
25.50000, 1.
25.64000, 3.
25.78000, 0.
25.92000, 0.
26.06000, 0.
26.20000, 0.
26.34000, 1.
26.48000, 0.
26.62000, 0.
26.76000, 2.
26.90000, 0.
27.04000, 1.
27.18000, 0.
27.32000, 0.
27.46000, 0.
27.60000, 0.
27.74000, 0.
27.88000, 0.
28.02000, 1.
28.16000, 0.
28.30000, 1.
28.44000, 0.
28.58000, 0.
28.72000, 0.
28.86000, 0.
29.00000, 0.
29.14000, 1.
29.28000, 1.
29.42000, 0.
29.56000, 0.
29.70000, 0.
29.84000, 0.
29.98000, 1.
30.12000, 0.
30.26000, 0.
30.40000, 0.
30.54000, 0.
30.68000, 0.
30.82000, 0.
30.96000, 0.
31.10000, 0.
31.24000, 0.
31.38000, 0.
31.52000, 0.
31.66000, 0.
31.80000, 0.
31.94000, 0.
32.08000, 0.
32.22000, 0.
32.36000, 0.
32.50000, 0.
32.64000, 0.
32.78000, 0.
32.92000, 0.
33.06000, 0.
33.20000, 0.
33.34000, 0.
33.48000, 0.
33.62000, 0.
33.76000, 0.
33.90000, 0.
34.04000, 0.
34.18000, 0.
34.32000, 0.
34.46000, 0.
34.60000, 0.
34.74000, 0.
34.88000, 0.
35.02000, 0.
35.16000, 0.
35.30000, 0.
35.44000, 0.
35.58000, 0.
35.72000, 0.
35.86000, 0.
36.00000, 0.
36.14000, 0.
36.28000, 0.
36.42000, 0.
36.56000, 0.
36.70000, 0.
36.84000, 0.
36.98000, 0.
37.12000, 0.
37.26000, 0.
37.40000, 0.
37.54000, 0.
37.68000, 0.
37.82000, 0.
37.96000, 0.
38.10000, 0.
38.24000, 0.
38.38000, 0.
38.52000, 0.
38.66000, 0.
38.80000, 0.
38.94000, 0.
39.08000, 0.
39.22000, 0.
39.36000, 0.
39.50000, 0.
39.64000, 0.
39.78000, 0.
39.92000, 0.
40.06000, 0.
40.20000, 0.
40.34000, 0.
40.48000, 0.
40.55000, 0.
#ENDOFDATA   :

File: Mg.txt
#FORMAT      : EMSA/MAS Spectral Data File
#VERSION     : 1.0
#TITLE       : Spectrum 3
#DATE        : 25-NOV-2025
#TIME        : 13:31
#OWNER       : XGT7200
#NPOINTS     : 4096.
#NCOLUMNS    : 1.
#XUNITS      : keV
#YUNITS      : counts
#DATATYPE    : XY
#XPERCHAN    : 0.0100000
#OFFSET      : -0.400000
#SIGNALTYPE  : EDS
#CHOFFSET    : 40.0000
#LIVETIME    : 30
#REALTIME    : 32.1185
#BEAMKV      : 30.0000
#PROBECUR    : 1.00000E+006
#MAGCAM      : 100.000
#XTILTSTGE   : 0.0
#AZIMANGLE   : 0.0
#ELEVANGLE   : 45.0
#XPOSITION mm: 0.0000
#YPOSITION mm: 0.0000
#ZPOSITION mm: 0.0000
##OXINSTPT   : 4
##OXINSTSTROB: 71.22
#SPECTRUM    : Spectral Data Starts Here
-0.40000, 0.
-0.26000, 0.
-0.12000, 0.
0.02000, 0.
0.16000, 0.
0.30000, 0.
0.44000, 8.
0.58000, 3.
0.72000, 7.
0.86000, 5.
1.00000, 8.
1.14000, 54.
1.28000, 1664.
1.42000, 4.
1.56000, 2.
1.70000, 9.
1.84000, 2.
1.98000, 1.
2.12000, 4.
2.26000, 9.
2.40000, 20.
2.54000, 32.
2.68000, 107.
2.82000, 29.
2.96000, 10.
3.10000, 4.
3.24000, 6.
3.38000, 9.
3.52000, 1.
3.66000, 7.
3.80000, 4.
3.94000, 7.
4.08000, 3.
4.22000, 22.
4.36000, 14.
4.50000, 9.
4.64000, 32.
4.78000, 6.
4.92000, 6.
5.06000, 5.
5.20000, 12.
5.34000, 9.
5.48000, 7.
5.62000, 6.
5.76000, 26.
5.90000, 34.
6.04000, 17.
6.18000, 40.
6.32000, 38.
6.46000, 29.
6.60000, 26.
6.74000, 11.
6.88000, 11.
7.02000, 32.
7.16000, 22.
7.30000, 18.
7.44000, 17.
7.58000, 21.
7.72000, 29.
7.86000, 20.
8.00000, 18.
8.14000, 19.
8.28000, 34.
8.42000, 47.
8.56000, 28.
8.70000, 31.
8.84000, 30.
8.98000, 27.
9.12000, 28.
9.26000, 41.
9.40000, 28.
9.54000, 29.
9.68000, 27.
9.82000, 20.
9.96000, 30.
10.10000, 22.
10.24000, 32.
10.38000, 37.
10.52000, 19.
10.66000, 31.
10.80000, 29.
10.94000, 34.
11.08000, 39.
11.22000, 26.
11.36000, 31.
11.50000, 30.
11.64000, 29.
11.78000, 32.
11.92000, 37.
12.06000, 28.
12.20000, 24.
12.34000, 36.
12.48000, 33.
12.62000, 31.
12.76000, 32.
12.90000, 32.
13.04000, 31.
13.18000, 26.
13.32000, 26.
13.46000, 36.
13.60000, 37.
13.74000, 23.
13.88000, 24.
14.02000, 23.
14.16000, 29.
14.30000, 37.
14.44000, 37.
14.58000, 23.
14.72000, 36.
14.86000, 35.
15.00000, 27.
15.14000, 26.
15.28000, 34.
15.42000, 29.
15.56000, 32.
15.70000, 71.
15.84000, 42.
15.98000, 23.
16.12000, 29.
16.26000, 22.
16.40000, 35.
16.54000, 37.
16.68000, 22.
16.82000, 29.
16.96000, 27.
17.10000, 17.
17.24000, 23.
17.38000, 23.
17.52000, 38.
17.66000, 34.
17.80000, 27.
17.94000, 17.
18.08000, 40.
18.22000, 25.
18.36000, 40.
18.50000, 52.
18.64000, 44.
18.78000, 60.
18.92000, 48.
19.06000, 48.
19.20000, 40.
19.34000, 21.
19.48000, 27.
19.62000, 20.
19.76000, 13.
19.90000, 25.
20.04000, 30.
20.18000, 33.
20.32000, 23.
20.46000, 15.
20.60000, 11.
20.74000, 22.
20.88000, 27.
21.02000, 23.
21.16000, 24.
21.30000, 17.
21.44000, 23.
21.58000, 16.
21.72000, 18.
21.86000, 14.
22.00000, 7.
22.14000, 11.
22.28000, 16.
22.42000, 12.
22.56000, 14.
22.70000, 9.
22.84000, 9.
22.98000, 8.
23.12000, 6.
23.26000, 7.
23.40000, 8.
23.54000, 13.
23.68000, 8.
23.82000, 12.
23.96000, 1.
24.10000, 11.
24.24000, 7.
24.38000, 11.
24.52000, 5.
24.66000, 4.
24.80000, 2.
24.94000, 6.
25.08000, 5.
25.22000, 6.
25.36000, 3.
25.50000, 4.
25.64000, 4.
25.78000, 4.
25.92000, 2.
26.06000, 1.
26.20000, 5.
26.34000, 3.
26.48000, 0.
26.62000, 4.
26.76000, 0.
26.90000, 0.
27.04000, 0.
27.18000, 0.
27.32000, 1.
27.46000, 0.
27.60000, 0.
27.74000, 1.
27.88000, 0.
28.02000, 1.
28.16000, 1.
28.30000, 1.
28.44000, 0.
28.58000, 0.
28.72000, 0.
28.86000, 0.
29.00000, 0.
29.14000, 1.
29.28000, 0.
29.42000, 0.
29.56000, 0.
29.70000, 0.
29.84000, 0.
29.98000, 0.
30.12000, 0.
30.26000, 0.
30.40000, 0.
30.54000, 0.
30.68000, 0.
30.82000, 0.
30.96000, 0.
31.10000, 1.
31.24000, 0.
31.38000, 0.
31.52000, 0.
31.66000, 0.
31.80000, 0.
31.94000, 0.
32.08000, 0.
32.22000, 0.
32.36000, 0.
32.50000, 0.
32.64000, 0.
32.78000, 0.
32.92000, 0.
33.06000, 0.
33.20000, 0.
33.34000, 0.
33.48000, 0.
33.62000, 0.
33.76000, 0.
33.90000, 0.
34.04000, 0.
34.18000, 0.
34.32000, 0.
34.46000, 0.
34.60000, 0.
34.74000, 0.
34.88000, 0.
35.02000, 0.
35.16000, 0.
35.30000, 0.
35.44000, 0.
35.58000, 0.
35.72000, 0.
35.86000, 0.
36.00000, 0.
36.14000, 0.
36.28000, 0.
36.42000, 0.
36.56000, 0.
36.70000, 0.
36.84000, 0.
36.98000, 0.
37.12000, 0.
37.26000, 0.
37.40000, 0.
37.54000, 0.
37.68000, 1.
37.82000, 0.
37.96000, 0.
38.10000, 0.
38.24000, 0.
38.38000, 0.
38.52000, 0.
38.66000, 0.
38.80000, 0.
38.94000, 0.
39.08000, 0.
39.22000, 0.
39.36000, 0.
39.50000, 0.
39.64000, 0.
39.78000, 0.
39.92000, 0.
40.06000, 0.
40.20000, 0.
40.34000, 0.
40.48000, 0.
40.55000, 0.
#ENDOFDATA   :