Folder: XRFLab/sample_data/data/Spectrum value from standard/LKSD1 (part 2)

File: Spectrum 12.txt
#FORMAT      : EMSA/MAS Spectral Data File
#VERSION     : 1.0
#TITLE       : Spectrum 12
#DATE        : 21-AUG-2025
#TIME        : 15:16
#OWNER       : XGT7200
#NPOINTS     : 4096.
#NCOLUMNS    : 1.
#XUNITS      : keV
#YUNITS      : counts
#DATATYPE    : XY
#XPERCHAN    : 0.0100000
#OFFSET      : -0.400000
#SIGNALTYPE  : EDS
#CHOFFSET    : 40.0000
#LIVETIME    : 30
#REALTIME    : 39.7435
#BEAMKV      : 50.0000
#PROBECUR    : 716000.
#MAGCAM      : 100.000
#XTILTSTGE   : 0.0
#AZIMANGLE   : 0.0
#ELEVANGLE   : 45.0
#XPOSITION mm: 0.0000
#YPOSITION mm: 0.0000
#ZPOSITION mm: 0.0000
##OXINSTPT   : 4
##OXINSTSTROB: 72.03
#SPECTRUM    : Spectral Data Starts Here
-0.40000, 0.
-0.26000, 0.
-0.12000, 0.
0.02000, 0.
0.16000, 0.
0.30000, 0.
0.44000, 41.
0.58000, 72.
0.72000, 36.
0.86000, 36.
1.00000, 57.
1.14000, 36.
1.28000, 70.
1.42000, 116.
1.56000, 166.
1.70000, 2443.
1.84000, 609.
1.98000, 127.
2.12000, 37.
2.26000, 887.
2.40000, 318.
2.54000, 106.
2.68000, 557.
2.82000, 369.
2.96000, 136.
3.10000, 49.
3.24000, 160.
3.38000, 244.
3.52000, 105.
3.66000, 6211.
3.80000, 970.
3.94000, 471.
4.08000, 554.
4.22000, 27.
4.36000, 44.
4.50000, 470.
4.64000, 95.
4.78000, 43.
4.92000, 123.
5.06000, 48.
5.20000, 68.
5.34000, 54.
5.48000, 46.
5.62000, 63.
5.76000, 58.
5.90000, 232.
6.04000, 79.
6.18000, 140.
6.32000, 4474.
6.46000, 6428.
6.60000, 156.
6.74000, 96.
6.88000, 174.
7.02000, 1542.
7.16000, 455.
7.30000, 81.
7.44000, 98.
7.58000, 78.
7.72000, 84.
7.86000, 88.
8.00000, 114.
8.14000, 114.
8.28000, 106.
8.42000, 130.
8.56000, 253.
8.70000, 248.
8.84000, 127.
8.98000, 119.
9.12000, 138.
9.26000, 150.
9.40000, 125.
9.54000, 190.
9.68000, 128.
9.82000, 139.
9.96000, 118.
10.10000, 158.
10.24000, 143.
10.38000, 159.
10.52000, 216.
10.66000, 156.
10.80000, 147.
10.94000, 154.
11.08000, 166.
11.22000, 149.
11.36000, 135.
11.50000, 169.
11.64000, 159.
11.78000, 164.
11.92000, 151.
12.06000, 145.
12.20000, 160.
12.34000, 150.
12.48000, 193.
12.62000, 211.
12.76000, 205.
12.90000, 173.
13.04000, 154.
13.18000, 162.
13.32000, 165.
13.46000, 205.
13.60000, 166.
13.74000, 191.
13.88000, 192.
14.02000, 313.
14.16000, 472.
14.30000, 207.
14.44000, 171.
14.58000, 173.
14.72000, 160.
14.86000, 165.
15.00000, 188.
15.14000, 153.
15.28000, 157.
15.42000, 184.
15.56000, 186.
15.70000, 262.
15.84000, 243.
15.98000, 180.
16.12000, 154.
16.26000, 154.
16.40000, 143.
16.54000, 161.
16.68000, 161.
16.82000, 169.
16.96000, 183.
17.10000, 171.
17.24000, 178.
17.38000, 158.
17.52000, 210.
17.66000, 212.
17.80000, 219.
17.94000, 241.
18.08000, 236.
18.22000, 316.
18.36000, 420.
18.50000, 614.
18.64000, 884.
18.78000, 1037.
18.92000, 904.
19.06000, 692.
19.20000, 472.
19.34000, 353.
19.48000, 256.
19.62000, 217.
19.76000, 189.
19.90000, 249.
20.04000, 451.
20.18000, 611.
20.32000, 305.
20.46000, 176.
20.60000, 178.
20.74000, 231.
20.88000, 238.
21.02000, 276.
21.16000, 264.
21.30000, 212.
21.44000, 191.
21.58000, 139.
21.72000, 131.
21.86000, 114.
22.00000, 103.
22.14000, 109.
22.28000, 91.
22.42000, 94.
22.56000, 129.
22.70000, 136.
22.84000, 111.
22.98000, 76.
23.12000, 104.
23.26000, 83.
23.40000, 63.
23.54000, 65.
23.68000, 65.
23.82000, 85.
23.96000, 73.
24.10000, 77.
24.24000, 78.
24.38000, 66.
24.52000, 72.
24.66000, 84.
24.80000, 76.
24.94000, 75.
25.08000, 77.
25.22000, 74.
25.36000, 71.
25.50000, 78.
25.64000, 70.
25.78000, 53.
25.92000, 64.
26.06000, 69.
26.20000, 63.
26.34000, 55.
26.48000, 60.
26.62000, 50.
26.76000, 55.
26.90000, 61.
27.04000, 47.
27.18000, 54.
27.32000, 67.
27.46000, 58.
27.60000, 45.
27.74000, 57.
27.88000, 48.
28.02000, 55.
28.16000, 61.
28.30000, 53.
28.44000, 52.
28.58000, 46.
28.72000, 47.
28.86000, 41.
29.00000, 47.
29.14000, 41.
29.28000, 43.
29.42000, 42.
29.56000, 28.
29.70000, 39.
29.84000, 41.
29.98000, 34.
30.12000, 36.
30.26000, 42.
30.40000, 34.
30.54000, 45.
30.68000, 24.
30.82000, 26.
30.96000, 26.
31.10000, 28.
31.24000, 26.
31.38000, 34.
31.52000, 32.
31.66000, 37.
31.80000, 49.
31.94000, 38.
32.08000, 40.
32.22000, 32.
32.36000, 29.
32.50000, 21.
32.64000, 25.
32.78000, 27.
32.92000, 27.
33.06000, 24.
33.20000, 25.
33.34000, 16.
33.48000, 22.
33.62000, 26.
33.76000, 28.
33.90000, 18.
34.04000, 21.
34.18000, 25.
34.32000, 19.
34.46000, 21.
34.60000, 19.
34.74000, 23.
34.88000, 20.
35.02000, 18.
35.16000, 19.
35.30000, 18.
35.44000, 21.
35.58000, 23.
35.72000, 8.
35.86000, 14.
36.00000, 17.
36.14000, 10.
36.28000, 14.
36.42000, 21.
36.56000, 11.
36.70000, 20.
36.84000, 15.
36.98000, 16.
37.12000, 11.
37.26000, 11.
37.40000, 11.
37.54000, 10.
37.68000, 6.
37.82000, 13.
37.96000, 7.
38.10000, 15.
38.24000, 10.
38.38000, 6.
38.52000, 8.
38.66000, 15.
38.80000, 8.
38.94000, 9.
39.08000, 7.
39.22000, 5.
39.36000, 6.
39.50000, 10.
39.64000, 4.
39.78000, 8.
39.92000, 10.
40.06000, 3.
40.20000, 7.
40.34000, 3.
40.48000, 4.
40.55000, 0.
#ENDOFDATA   :