Folder: XRFLab/sample_data/data/Spectrum value from standard/LKSD1

Note: README.md
# FpXrF
fundamental parameters GUI for X-ray fluoresence spectroscopy

File: Spectrum 7, LKSD 1.txt
#FORMAT      : EMSA/MAS Spectral Data File
#VERSION     : 1.0
#TITLE       : Spectrum 7
#DATE        : 21-AUG-2025
#TIME        : 15:11
#OWNER       : XGT7200
#NPOINTS     : 4096.
#NCOLUMNS    : 1.
#XUNITS      : keV
#YUNITS      : counts
#DATATYPE    : XY
#XPERCHAN    : 0.0100000
#OFFSET      : -0.400000
#SIGNALTYPE  : EDS
#CHOFFSET    : 40.0000
#LIVETIME    : 30
#REALTIME    : 39.9128
#BEAMKV      : 50.0000
#PROBECUR    : 734000.
#MAGCAM      : 100.000
#XTILTSTGE   : 0.0
#AZIMANGLE   : 0.0
#ELEVANGLE   : 45.0
#XPOSITION mm: 0.0000
#YPOSITION mm: 0.0000
#ZPOSITION mm: 0.0000
##OXINSTPT   : 4
##OXINSTSTROB: 71.95
#SPECTRUM    : Spectral Data Starts Here
-0.40000, 0.
-0.26000, 0.
-0.12000, 0.
0.02000, 0.
0.16000, 0.
0.30000, 0.
0.44000, 38.
0.58000, 70.
0.72000, 44.
0.86000, 41.
1.00000, 51.
1.14000, 54.
1.28000, 64.
1.42000, 125.
1.56000, 142.
1.70000, 2527.
1.84000, 569.
1.98000, 108.
2.12000, 44.
2.26000, 795.
2.40000, 287.
2.54000, 76.
2.68000, 543.
2.82000, 508.
2.96000, 144.
3.10000, 41.
3.24000, 153.
3.38000, 258.
3.52000, 113.
3.66000, 5719.
3.80000, 899.
3.94000, 400.
4.08000, 524.
4.22000, 37.
4.36000, 50.
4.50000, 401.
4.64000, 90.
4.78000, 45.
4.92000, 113.
5.06000, 45.
5.20000, 27.
5.34000, 46.
5.48000, 57.
5.62000, 59.
5.76000, 58.
5.90000, 240.
6.04000, 75.
6.18000, 155.
6.32000, 4481.
6.46000, 6411.
6.60000, 152.
6.74000, 112.
6.88000, 178.
7.02000, 1495.
7.16000, 501.
7.30000, 71.
7.44000, 96.
7.58000, 74.
7.72000, 75.
7.86000, 92.
8.00000, 129.
8.14000, 119.
8.28000, 116.
8.42000, 110.
8.56000, 274.
8.70000, 263.
8.84000, 119.
8.98000, 117.
9.12000, 108.
9.26000, 139.
9.40000, 136.
9.54000, 161.
9.68000, 170.
9.82000, 119.
9.96000, 161.
10.10000, 151.
10.24000, 146.
10.38000, 156.
10.52000, 200.
10.66000, 174.
10.80000, 171.
10.94000, 165.
11.08000, 139.
11.22000, 147.
11.36000, 163.
11.50000, 166.
11.64000, 172.
11.78000, 156.
11.92000, 188.
12.06000, 160.
12.20000, 163.
12.34000, 171.
12.48000, 159.
12.62000, 199.
12.76000, 185.
12.90000, 165.
13.04000, 196.
13.18000, 209.
13.32000, 199.
13.46000, 180.
13.60000, 155.
13.74000, 151.
13.88000, 182.
14.02000, 320.
14.16000, 413.
14.30000, 214.
14.44000, 155.
14.58000, 162.
14.72000, 174.
14.86000, 201.
15.00000, 171.
15.14000, 168.
15.28000, 162.
15.42000, 167.
15.56000, 260.
15.70000, 466.
15.84000, 363.
15.98000, 192.
16.12000, 189.
16.26000, 179.
16.40000, 175.
16.54000, 173.
16.68000, 187.
16.82000, 147.
16.96000, 170.
17.10000, 142.
17.24000, 207.
17.38000, 195.
17.52000, 213.
17.66000, 229.
17.80000, 262.
17.94000, 241.
18.08000, 252.
18.22000, 336.
18.36000, 432.
18.50000, 673.
18.64000, 899.
18.78000, 1098.
18.92000, 998.
19.06000, 745.
19.20000, 480.
19.34000, 348.
19.48000, 268.
19.62000, 204.
19.76000, 198.
19.90000, 282.
20.04000, 486.
20.18000, 587.
20.32000, 298.
20.46000, 163.
20.60000, 184.
20.74000, 238.
20.88000, 297.
21.02000, 292.
21.16000, 263.
21.30000, 221.
21.44000, 199.
21.58000, 161.
21.72000, 128.
21.86000, 116.
22.00000, 102.
22.14000, 88.
22.28000, 109.
22.42000, 92.
22.56000, 107.
22.70000, 153.
22.84000, 105.
22.98000, 90.
23.12000, 86.
23.26000, 74.
23.40000, 87.
23.54000, 60.
23.68000, 89.
23.82000, 69.
23.96000, 82.
24.10000, 72.
24.24000, 83.
24.38000, 73.
24.52000, 66.
24.66000, 73.
24.80000, 61.
24.94000, 74.
25.08000, 82.
25.22000, 67.
25.36000, 74.
25.50000, 78.
25.64000, 57.
25.78000, 76.
25.92000, 66.
26.06000, 77.
26.20000, 65.
26.34000, 59.
26.48000, 56.
26.62000, 68.
26.76000, 62.
26.90000, 50.
27.04000, 61.
27.18000, 55.
27.32000, 59.
27.46000, 61.
27.60000, 50.
27.74000, 40.
27.88000, 37.
28.02000, 34.
28.16000, 45.
28.30000, 40.
28.44000, 53.
28.58000, 44.
28.72000, 46.
28.86000, 43.
29.00000, 46.
29.14000, 40.
29.28000, 47.
29.42000, 52.
29.56000, 46.
29.70000, 42.
29.84000, 39.
29.98000, 41.
30.12000, 34.
30.26000, 39.
30.40000, 34.
30.54000, 33.
30.68000, 44.
30.82000, 39.
30.96000, 34.
31.10000, 25.
31.24000, 40.
31.38000, 27.
31.52000, 32.
31.66000, 31.
31.80000, 32.
31.94000, 35.
32.08000, 36.
32.22000, 44.
32.36000, 24.
32.50000, 24.
32.64000, 25.
32.78000, 24.
32.92000, 23.
33.06000, 34.
33.20000, 26.
33.34000, 22.
33.48000, 20.
33.62000, 25.
33.76000, 21.
33.90000, 20.
34.04000, 20.
34.18000, 15.
34.32000, 19.
34.46000, 27.
34.60000, 19.
34.74000, 25.
34.88000, 21.
35.02000, 23.
35.16000, 7.
35.30000, 18.
35.44000, 12.
35.58000, 20.
35.72000, 11.
35.86000, 9.
36.00000, 22.
36.14000, 15.
36.28000, 15.
36.42000, 14.
36.56000, 11.
36.70000, 16.
36.84000, 11.
36.98000, 14.
37.12000, 11.
37.26000, 15.
37.40000, 7.
37.54000, 10.
37.68000, 9.
37.82000, 9.
37.96000, 13.
38.10000, 8.
38.24000, 8.
38.38000, 6.
38.52000, 11.
38.66000, 14.
38.80000, 12.
38.94000, 7.
39.08000, 5.
39.22000, 3.
39.36000, 5.
39.50000, 7.
39.64000, 0.
39.78000, 7.
39.92000, 8.
40.06000, 7.
40.20000, 9.
40.34000, 4.
40.48000, 3.
40.55000, 0.
#ENDOFDATA   :

File: Spectrum 8.txt
#FORMAT      : EMSA/MAS Spectral Data File
#VERSION     : 1.0
#TITLE       : Spectrum 8
#DATE        : 21-AUG-2025
#TIME        : 15:12
#OWNER       : XGT7200
#NPOINTS     : 4096.
#NCOLUMNS    : 1.
#XUNITS      : keV
#YUNITS      : counts
#DATATYPE    : XY
#XPERCHAN    : 0.0100000
#OFFSET      : -0.400000
#SIGNALTYPE  : EDS
#CHOFFSET    : 40.0000
#LIVETIME    : 30
#REALTIME    : 39.6359
#BEAMKV      : 50.0000
#PROBECUR    : 729000.
#MAGCAM      : 100.000
#XTILTSTGE   : 0.0
#AZIMANGLE   : 0.0
#ELEVANGLE   : 45.0
#XPOSITION mm: 0.0000
#YPOSITION mm: 0.0000
#ZPOSITION mm: 0.0000
##OXINSTPT   : 4
##OXINSTSTROB: 72.00
#SPECTRUM    : Spectral Data Starts Here
-0.40000, 0.
-0.26000, 0.
-0.12000, 0.
0.02000, 0.
0.16000, 0.
0.30000, 0.
0.44000, 48.
0.58000, 52.
0.72000, 53.
0.86000, 41.
1.00000, 55.
1.14000, 52.
1.28000, 68.
1.42000, 111.
1.56000, 148.
1.70000, 2443.
1.84000, 582.
1.98000, 108.
2.12000, 59.
2.26000, 847.
2.40000, 314.
2.54000, 102.
2.68000, 484.
2.82000, 371.
2.96000, 129.
3.10000, 38.
3.24000, 171.
3.38000, 216.
3.52000, 114.
3.66000, 5827.
3.80000, 887.
3.94000, 391.
4.08000, 507.
4.22000, 28.
4.36000, 45.
4.50000, 427.
4.64000, 85.
4.78000, 56.
4.92000, 130.
5.06000, 38.
5.20000, 44.
5.34000, 52.
5.48000, 60.
5.62000, 63.
5.76000, 58.
5.90000, 232.
6.04000, 91.
6.18000, 134.
6.32000, 4389.
6.46000, 6062.
6.60000, 150.
6.74000, 102.
6.88000, 147.
7.02000, 1428.
7.16000, 484.
7.30000, 92.
7.44000, 100.
7.58000, 65.
7.72000, 81.
7.86000, 90.
8.00000, 114.
8.14000, 124.
8.28000, 117.
8.42000, 103.
8.56000, 268.
8.70000, 246.
8.84000, 139.
8.98000, 132.
9.12000, 115.
9.26000, 146.
9.40000, 143.
9.54000, 168.
9.68000, 140.
9.82000, 169.
9.96000, 155.
10.10000, 153.
10.24000, 154.
10.38000, 149.
10.52000, 192.
10.66000, 142.
10.80000, 178.
10.94000, 156.
11.08000, 132.
11.22000, 135.
11.36000, 162.
11.50000, 163.
11.64000, 154.
11.78000, 167.
11.92000, 198.
12.06000, 154.
12.20000, 177.
12.34000, 190.
12.48000, 184.
12.62000, 180.
12.76000, 177.
12.90000, 197.
13.04000, 181.
13.18000, 172.
13.32000, 216.
13.46000, 213.
13.60000, 174.
13.74000, 191.
13.88000, 150.
14.02000, 341.
14.16000, 446.
14.30000, 211.
14.44000, 165.
14.58000, 190.
14.72000, 168.
14.86000, 190.
15.00000, 190.
15.14000, 205.
15.28000, 189.
15.42000, 169.
15.56000, 183.
15.70000, 273.
15.84000, 237.
15.98000, 172.
16.12000, 169.
16.26000, 174.
16.40000, 171.
16.54000, 171.
16.68000, 159.
16.82000, 170.
16.96000, 165.
17.10000, 169.
17.24000, 201.
17.38000, 209.
17.52000, 186.
17.66000, 208.
17.80000, 227.
17.94000, 218.
18.08000, 266.
18.22000, 310.
18.36000, 448.
18.50000, 645.
18.64000, 916.
18.78000, 1048.
18.92000, 934.
19.06000, 735.
19.20000, 495.
19.34000, 314.
19.48000, 266.
19.62000, 202.
19.76000, 180.
19.90000, 257.
20.04000, 458.
20.18000, 579.
20.32000, 302.
20.46000, 170.
20.60000, 185.
20.74000, 214.
20.88000, 216.
21.02000, 310.
21.16000, 272.
21.30000, 234.
21.44000, 171.
21.58000, 157.
21.72000, 114.
21.86000, 124.
22.00000, 87.
22.14000, 77.
22.28000, 91.
22.42000, 125.
22.56000, 116.
22.70000, 150.
22.84000, 105.
22.98000, 87.
23.12000, 109.
23.26000, 85.
23.40000, 81.
23.54000, 62.
23.68000, 62.
23.82000, 73.
23.96000, 66.
24.10000, 65.
24.24000, 75.
24.38000, 80.
24.52000, 85.
24.66000, 69.
24.80000, 70.
24.94000, 80.
25.08000, 67.
25.22000, 66.
25.36000, 67.
25.50000, 61.
25.64000, 42.
25.78000, 68.
25.92000, 55.
26.06000, 63.
26.20000, 58.
26.34000, 65.
26.48000, 66.
26.62000, 47.
26.76000, 52.
26.90000, 53.
27.04000, 65.
27.18000, 65.
27.32000, 67.
27.46000, 45.
27.60000, 51.
27.74000, 48.
27.88000, 54.
28.02000, 45.
28.16000, 48.
28.30000, 49.
28.44000, 52.
28.58000, 42.
28.72000, 40.
28.86000, 42.
29.00000, 45.
29.14000, 45.
29.28000, 38.
29.42000, 32.
29.56000, 44.
29.70000, 35.
29.84000, 45.
29.98000, 34.
30.12000, 39.
30.26000, 52.
30.40000, 36.
30.54000, 51.
30.68000, 29.
30.82000, 30.
30.96000, 36.
31.10000, 42.
31.24000, 30.
31.38000, 29.
31.52000, 37.
31.66000, 26.
31.80000, 39.
31.94000, 32.
32.08000, 26.
32.22000, 39.
32.36000, 24.
32.50000, 34.
32.64000, 30.
32.78000, 28.
32.92000, 26.
33.06000, 29.
33.20000, 27.
33.34000, 25.
33.48000, 15.
33.62000, 14.
33.76000, 15.
33.90000, 26.
34.04000, 11.
34.18000, 10.
34.32000, 14.
34.46000, 21.
34.60000, 15.
34.74000, 19.
34.88000, 18.
35.02000, 18.
35.16000, 18.
35.30000, 15.
35.44000, 25.
35.58000, 16.
35.72000, 19.
35.86000, 21.
36.00000, 13.
36.14000, 12.
36.28000, 12.
36.42000, 11.
36.56000, 14.
36.70000, 10.
36.84000, 14.
36.98000, 17.
37.12000, 9.
37.26000, 13.
37.40000, 13.
37.54000, 10.
37.68000, 11.
37.82000, 13.
37.96000, 14.
38.10000, 8.
38.24000, 12.
38.38000, 4.
38.52000, 7.
38.66000, 7.
38.80000, 4.
38.94000, 8.
39.08000, 6.
39.22000, 6.
39.36000, 7.
39.50000, 3.
39.64000, 8.
39.78000, 5.
39.92000, 8.
40.06000, 9.
40.20000, 6.
40.34000, 3.
40.48000, 3.
40.55000, 0.
#ENDOFDATA   :

File: Spectrum 9.txt
#FORMAT      : EMSA/MAS Spectral Data File
#VERSION     : 1.0
#TITLE       : Spectrum 9
#DATE        : 21-AUG-2025
#TIME        : 15:13
#OWNER       : XGT7200
#NPOINTS     : 4096.
#NCOLUMNS    : 1.
#XUNITS      : keV
#YUNITS      : counts
#DATATYPE    : XY
#XPERCHAN    : 0.0100000
#OFFSET      : -0.400000
#SIGNALTYPE  : EDS
#CHOFFSET    : 40.0000
#LIVETIME    : 30
#REALTIME    : 39.7691
#BEAMKV      : 50.0000
#PROBECUR    : 719000.
#MAGCAM      : 100.000
#XTILTSTGE   : 0.0
#AZIMANGLE   : 0.0
#ELEVANGLE   : 45.0
#XPOSITION mm: 0.0000
#YPOSITION mm: 0.0000
#ZPOSITION mm: 0.0000
##OXINSTPT   : 4
##OXINSTSTROB: 71.91
#SPECTRUM    : Spectral Data Starts Here
-0.40000, 0.
-0.26000, 0.
-0.12000, 0.
0.02000, 0.
0.16000, 0.
0.30000, 0.
0.44000, 46.
0.58000, 52.
0.72000, 43.
0.86000, 51.
1.00000, 50.
1.14000, 45.
1.28000, 60.
1.42000, 95.
1.56000, 156.
1.70000, 2667.
1.84000, 606.
1.98000, 125.
2.12000, 34.
2.26000, 879.
2.40000, 288.
2.54000, 76.
2.68000, 490.
2.82000, 322.
2.96000, 114.
3.10000, 43.
3.24000, 179.
3.38000, 224.
3.52000, 117.
3.66000, 5766.
3.80000, 908.
3.94000, 389.
4.08000, 542.
4.22000, 28.
4.36000, 35.
4.50000, 283.
4.64000, 78.
4.78000, 58.
4.92000, 94.
5.06000, 46.
5.20000, 45.
5.34000, 76.
5.48000, 61.
5.62000, 61.
5.76000, 63.
5.90000, 256.
6.04000, 65.
6.18000, 108.
6.32000, 4254.
6.46000, 6180.
6.60000, 150.
6.74000, 91.
6.88000, 159.
7.02000, 1450.
7.16000, 468.
7.30000, 85.
7.44000, 89.
7.58000, 63.
7.72000, 95.
7.86000, 106.
8.00000, 129.
8.14000, 156.
8.28000, 98.
8.42000, 111.
8.56000, 247.
8.70000, 232.
8.84000, 133.
8.98000, 122.
9.12000, 125.
9.26000, 147.
9.40000, 142.
9.54000, 168.
9.68000, 130.
9.82000, 121.
9.96000, 156.
10.10000, 124.
10.24000, 138.
10.38000, 162.
10.52000, 223.
10.66000, 182.
10.80000, 174.
10.94000, 162.
11.08000, 152.
11.22000, 161.
11.36000, 169.
11.50000, 167.
11.64000, 143.
11.78000, 194.
11.92000, 167.
12.06000, 132.
12.20000, 190.
12.34000, 164.
12.48000, 205.
12.62000, 189.
12.76000, 183.
12.90000, 190.
13.04000, 197.
13.18000, 174.
13.32000, 206.
13.46000, 215.
13.60000, 169.
13.74000, 168.
13.88000, 185.
14.02000, 320.
14.16000, 460.
14.30000, 233.
14.44000, 168.
14.58000, 190.
14.72000, 157.
14.86000, 179.
15.00000, 169.
15.14000, 177.
15.28000, 167.
15.42000, 170.
15.56000, 214.
15.70000, 278.
15.84000, 268.
15.98000, 173.
16.12000, 172.
16.26000, 163.
16.40000, 144.
16.54000, 169.
16.68000, 160.
16.82000, 183.
16.96000, 190.
17.10000, 180.
17.24000, 189.
17.38000, 210.
17.52000, 216.
17.66000, 215.
17.80000, 222.
17.94000, 201.
18.08000, 282.
18.22000, 302.
18.36000, 449.
18.50000, 627.
18.64000, 968.
18.78000, 1062.
18.92000, 974.
19.06000, 744.
19.20000, 522.
19.34000, 334.
19.48000, 287.
19.62000, 201.
19.76000, 223.
19.90000, 247.
20.04000, 443.
20.18000, 596.
20.32000, 336.
20.46000, 179.
20.60000, 220.
20.74000, 247.
20.88000, 277.
21.02000, 275.
21.16000, 260.
21.30000, 219.
21.44000, 202.
21.58000, 155.
21.72000, 132.
21.86000, 110.
22.00000, 124.
22.14000, 110.
22.28000, 92.
22.42000, 97.
22.56000, 132.
22.70000, 153.
22.84000, 118.
22.98000, 84.
23.12000, 89.
23.26000, 93.
23.40000, 83.
23.54000, 74.
23.68000, 69.
23.82000, 69.
23.96000, 62.
24.10000, 78.
24.24000, 72.
24.38000, 80.
24.52000, 70.
24.66000, 77.
24.80000, 74.
24.94000, 68.
25.08000, 90.
25.22000, 80.
25.36000, 82.
25.50000, 81.
25.64000, 54.
25.78000, 60.
25.92000, 51.
26.06000, 64.
26.20000, 64.
26.34000, 67.
26.48000, 60.
26.62000, 70.
26.76000, 54.
26.90000, 59.
27.04000, 56.
27.18000, 50.
27.32000, 58.
27.46000, 53.
27.60000, 43.
27.74000, 52.
27.88000, 50.
28.02000, 47.
28.16000, 40.
28.30000, 48.
28.44000, 51.
28.58000, 57.
28.72000, 49.
28.86000, 39.
29.00000, 42.
29.14000, 40.
29.28000, 43.
29.42000, 42.
29.56000, 41.
29.70000, 36.
29.84000, 38.
29.98000, 44.
30.12000, 40.
30.26000, 35.
30.40000, 39.
30.54000, 41.
30.68000, 27.
30.82000, 37.
30.96000, 33.
31.10000, 28.
31.24000, 35.
31.38000, 24.
31.52000, 35.
31.66000, 35.
31.80000, 41.
31.94000, 29.
32.08000, 28.
32.22000, 33.
32.36000, 28.
32.50000, 27.
32.64000, 21.
32.78000, 36.
32.92000, 24.
33.06000, 24.
33.20000, 29.
33.34000, 22.
33.48000, 28.
33.62000, 20.
33.76000, 23.
33.90000, 29.
34.04000, 23.
34.18000, 35.
34.32000, 23.
34.46000, 22.
34.60000, 21.
34.74000, 9.
34.88000, 19.
35.02000, 15.
35.16000, 15.
35.30000, 15.
35.44000, 14.
35.58000, 21.
35.72000, 20.
35.86000, 18.
36.00000, 14.
36.14000, 14.
36.28000, 14.
36.42000, 22.
36.56000, 18.
36.70000, 15.
36.84000, 11.
36.98000, 14.
37.12000, 21.
37.26000, 15.
37.40000, 11.
37.54000, 12.
37.68000, 12.
37.82000, 8.
37.96000, 9.
38.10000, 12.
38.24000, 14.
38.38000, 10.
38.52000, 11.
38.66000, 11.
38.80000, 7.
38.94000, 6.
39.08000, 5.
39.22000, 12.
39.36000, 6.
39.50000, 6.
39.64000, 6.
39.78000, 4.
39.92000, 5.
40.06000, 9.
40.20000, 2.
40.34000, 4.
40.48000, 5.
40.55000, 0.
#ENDOFDATA   :

File: Spectrum 10, LKSD 1.txt
#FORMAT      : EMSA/MAS Spectral Data File
#VERSION     : 1.0
#TITLE       : Spectrum 10
#DATE        : 21-AUG-2025
#TIME        : 15:14
#OWNER       : XGT7200
#NPOINTS     : 4096.
#NCOLUMNS    : 1.
#XUNITS      : keV
#YUNITS      : counts
#DATATYPE    : XY
#XPERCHAN    : 0.0100000
#OFFSET      : -0.400000
#SIGNALTYPE  : EDS
#CHOFFSET    : 40.0000
#LIVETIME    : 30
#REALTIME    : 39.3804
#BEAMKV      : 50.0000
#PROBECUR    : 706000.
#MAGCAM      : 100.000
#XTILTSTGE   : 0.0
#AZIMANGLE   : 0.0
#ELEVANGLE   : 45.0
#XPOSITION mm: 0.0000
#YPOSITION mm: 0.0000
#ZPOSITION mm: 0.0000
##OXINSTPT   : 4
##OXINSTSTROB: 72.00
#SPECTRUM    : Spectral Data Starts Here
-0.40000, 0.
-0.26000, 0.
-0.12000, 0.
0.02000, 0.
0.16000, 0.
0.30000, 0.
0.44000, 49.
0.58000, 66.
0.72000, 51.
0.86000, 37.
1.00000, 60.
1.14000, 48.
1.28000, 72.
1.42000, 136.
1.56000, 147.
1.70000, 2681.
1.84000, 618.
1.98000, 113.
2.12000, 39.
2.26000, 809.
2.40000, 257.
2.54000, 95.
2.68000, 604.
2.82000, 340.
2.96000, 96.
3.10000, 46.
3.24000, 195.
3.38000, 269.
3.52000, 113.
3.66000, 5114.
3.80000, 807.
3.94000, 350.
4.08000, 482.
4.22000, 32.
4.36000, 39.
4.50000, 267.
4.64000, 83.
4.78000, 58.
4.92000, 95.
5.06000, 44.
5.20000, 54.
5.34000, 65.
5.48000, 69.
5.62000, 69.
5.76000, 64.
5.90000, 230.
6.04000, 73.
6.18000, 119.
6.32000, 4243.
6.46000, 6109.
6.60000, 136.
6.74000, 90.
6.88000, 157.
7.02000, 1372.
7.16000, 492.
7.30000, 94.
7.44000, 73.
7.58000, 82.
7.72000, 82.
7.86000, 91.
8.00000, 124.
8.14000, 147.
8.28000, 103.
8.42000, 104.
8.56000, 226.
8.70000, 191.
8.84000, 114.
8.98000, 123.
9.12000, 129.
9.26000, 132.
9.40000, 130.
9.54000, 146.
9.68000, 163.
9.82000, 145.
9.96000, 135.
10.10000, 154.
10.24000, 135.
10.38000, 158.
10.52000, 199.
10.66000, 181.
10.80000, 147.
10.94000, 140.
11.08000, 161.
11.22000, 167.
11.36000, 161.
11.50000, 168.
11.64000, 158.
11.78000, 160.
11.92000, 166.
12.06000, 161.
12.20000, 154.
12.34000, 188.
12.48000, 178.
12.62000, 171.
12.76000, 182.
12.90000, 182.
13.04000, 169.
13.18000, 202.
13.32000, 199.
13.46000, 177.
13.60000, 171.
13.74000, 189.
13.88000, 176.
14.02000, 334.
14.16000, 478.
14.30000, 223.
14.44000, 160.
14.58000, 161.
14.72000, 176.
14.86000, 191.
15.00000, 168.
15.14000, 163.
15.28000, 168.
15.42000, 152.
15.56000, 189.
15.70000, 282.
15.84000, 276.
15.98000, 187.
16.12000, 175.
16.26000, 162.
16.40000, 158.
16.54000, 163.
16.68000, 175.
16.82000, 153.
16.96000, 170.
17.10000, 180.
17.24000, 172.
17.38000, 170.
17.52000, 196.
17.66000, 195.
17.80000, 228.
17.94000, 235.
18.08000, 248.
18.22000, 281.
18.36000, 420.
18.50000, 634.
18.64000, 924.
18.78000, 1069.
18.92000, 999.
19.06000, 715.
19.20000, 539.
19.34000, 349.
19.48000, 236.
19.62000, 230.
19.76000, 156.
19.90000, 228.
20.04000, 516.
20.18000, 584.
20.32000, 300.
20.46000, 193.
20.60000, 203.
20.74000, 213.
20.88000, 292.
21.02000, 268.
21.16000, 282.
21.30000, 217.
21.44000, 181.
21.58000, 145.
21.72000, 115.
21.86000, 111.
22.00000, 111.
22.14000, 88.
22.28000, 82.
22.42000, 105.
22.56000, 132.
22.70000, 160.
22.84000, 108.
22.98000, 100.
23.12000, 94.
23.26000, 62.
23.40000, 76.
23.54000, 74.
23.68000, 81.
23.82000, 66.
23.96000, 73.
24.10000, 84.
24.24000, 68.
24.38000, 85.
24.52000, 66.
24.66000, 66.
24.80000, 94.
24.94000, 80.
25.08000, 78.
25.22000, 66.
25.36000, 67.
25.50000, 66.
25.64000, 71.
25.78000, 58.
25.92000, 75.
26.06000, 56.
26.20000, 64.
26.34000, 50.
26.48000, 65.
26.62000, 47.
26.76000, 59.
26.90000, 53.
27.04000, 56.
27.18000, 53.
27.32000, 45.
27.46000, 48.
27.60000, 58.
27.74000, 54.
27.88000, 64.
28.02000, 55.
28.16000, 45.
28.30000, 38.
28.44000, 47.
28.58000, 46.
28.72000, 51.
28.86000, 51.
29.00000, 41.
29.14000, 41.
29.28000, 37.
29.42000, 32.
29.56000, 56.
29.70000, 34.
29.84000, 51.
29.98000, 38.
30.12000, 26.
30.26000, 28.
30.40000, 28.
30.54000, 27.
30.68000, 33.
30.82000, 29.
30.96000, 36.
31.10000, 30.
31.24000, 31.
31.38000, 36.
31.52000, 30.
31.66000, 23.
31.80000, 25.
31.94000, 35.
32.08000, 25.
32.22000, 32.
32.36000, 30.
32.50000, 33.
32.64000, 29.
32.78000, 21.
32.92000, 27.
33.06000, 27.
33.20000, 26.
33.34000, 27.
33.48000, 18.
33.62000, 13.
33.76000, 18.
33.90000, 22.
34.04000, 17.
34.18000, 17.
34.32000, 21.
34.46000, 30.
34.60000, 20.
34.74000, 25.
34.88000, 12.
35.02000, 17.
35.16000, 19.
35.30000, 15.
35.44000, 18.
35.58000, 22.
35.72000, 16.
35.86000, 12.
36.00000, 13.
36.14000, 19.
36.28000, 13.
36.42000, 14.
36.56000, 10.
36.70000, 12.
36.84000, 10.
36.98000, 9.
37.12000, 8.
37.26000, 12.
37.40000, 9.
37.54000, 9.
37.68000, 10.
37.82000, 17.
37.96000, 5.
38.10000, 10.
38.24000, 5.
38.38000, 12.
38.52000, 7.
38.66000, 6.
38.80000, 9.
38.94000, 6.
39.08000, 9.
39.22000, 5.
39.36000, 10.
39.50000, 8.
39.64000, 7.
39.78000, 10.
39.92000, 6.
40.06000, 7.
40.20000, 2.
40.34000, 6.
40.48000, 2.
40.55000, 0.
#ENDOFDATA   :

File: Spectrum 11.txt
#FORMAT      : EMSA/MAS Spectral Data File
#VERSION     : 1.0
#TITLE       : Spectrum 11
#DATE        : 21-AUG-2025
#TIME        : 15:15
#OWNER       : XGT7200
#NPOINTS     : 4096.
#NCOLUMNS    : 1.
#XUNITS      : keV
#YUNITS      : counts
#DATATYPE    : XY
#XPERCHAN    : 0.0100000
#OFFSET      : -0.400000
#SIGNALTYPE  : EDS
#CHOFFSET    : 40.0000
#LIVETIME    : 30
#REALTIME    : 39.5634
#BEAMKV      : 50.0000
#PROBECUR    : 717000.
#MAGCAM      : 100.000
#XTILTSTGE   : 0.0
#AZIMANGLE   : 0.0
#ELEVANGLE   : 45.0
#XPOSITION mm: 0.0000
#YPOSITION mm: 0.0000
#ZPOSITION mm: 0.0000
##OXINSTPT   : 4
##OXINSTSTROB: 72.01
#SPECTRUM    : Spectral Data Starts Here
-0.40000, 0.
-0.26000, 0.
-0.12000, 0.
0.02000, 0.
0.16000, 0.
0.30000, 0.
0.44000, 54.
0.58000, 72.
0.72000, 46.
0.86000, 38.
1.00000, 50.
1.14000, 37.
1.28000, 69.
1.42000, 127.
1.56000, 157.
1.70000, 2414.
1.84000, 586.
1.98000, 138.
2.12000, 49.
2.26000, 830.
2.40000, 274.
2.54000, 103.
2.68000, 464.
2.82000, 353.
2.96000, 114.
3.10000, 39.
3.24000, 188.
3.38000, 259.
3.52000, 116.
3.66000, 5736.
3.80000, 883.
3.94000, 392.
4.08000, 531.
4.22000, 24.
4.36000, 28.
4.50000, 344.
4.64000, 97.
4.78000, 54.
4.92000, 91.
5.06000, 33.
5.20000, 45.
5.34000, 53.
5.48000, 61.
5.62000, 57.
5.76000, 77.
5.90000, 245.
6.04000, 99.
6.18000, 95.
6.32000, 4283.
6.46000, 6109.
6.60000, 141.
6.74000, 101.
6.88000, 161.
7.02000, 1468.
7.16000, 468.
7.30000, 89.
7.44000, 88.
7.58000, 71.
7.72000, 76.
7.86000, 95.
8.00000, 116.
8.14000, 116.
8.28000, 107.
8.42000, 113.
8.56000, 224.
8.70000, 229.
8.84000, 116.
8.98000, 113.
9.12000, 150.
9.26000, 127.
9.40000, 125.
9.54000, 164.
9.68000, 136.
9.82000, 124.
9.96000, 142.
10.10000, 147.
10.24000, 145.
10.38000, 161.
10.52000, 195.
10.66000, 150.
10.80000, 131.
10.94000, 163.
11.08000, 140.
11.22000, 158.
11.36000, 159.
11.50000, 167.
11.64000, 173.
11.78000, 158.
11.92000, 204.
12.06000, 165.
12.20000, 162.
12.34000, 177.
12.48000, 177.
12.62000, 194.
12.76000, 178.
12.90000, 183.
13.04000, 189.
13.18000, 168.
13.32000, 191.
13.46000, 183.
13.60000, 181.
13.74000, 160.
13.88000, 184.
14.02000, 332.
14.16000, 427.
14.30000, 192.
14.44000, 133.
14.58000, 175.
14.72000, 172.
14.86000, 209.
15.00000, 188.
15.14000, 147.
15.28000, 168.
15.42000, 174.
15.56000, 209.
15.70000, 371.
15.84000, 329.
15.98000, 182.
16.12000, 159.
16.26000, 164.
16.40000, 182.
16.54000, 174.
16.68000, 179.
16.82000, 181.
16.96000, 155.
17.10000, 178.
17.24000, 189.
17.38000, 194.
17.52000, 213.
17.66000, 248.
17.80000, 202.
17.94000, 228.
18.08000, 231.
18.22000, 316.
18.36000, 408.
18.50000, 647.
18.64000, 871.
18.78000, 966.
18.92000, 955.
19.06000, 727.
19.20000, 456.
19.34000, 333.
19.48000, 275.
19.62000, 209.
19.76000, 164.
19.90000, 247.
20.04000, 485.
20.18000, 561.
20.32000, 309.
20.46000, 194.
20.60000, 187.
20.74000, 224.
20.88000, 253.
21.02000, 293.
21.16000, 245.
21.30000, 221.
21.44000, 171.
21.58000, 139.
21.72000, 136.
21.86000, 121.
22.00000, 104.
22.14000, 110.
22.28000, 100.
22.42000, 112.
22.56000, 117.
22.70000, 128.
22.84000, 112.
22.98000, 90.
23.12000, 69.
23.26000, 93.
23.40000, 83.
23.54000, 74.
23.68000, 93.
23.82000, 60.
23.96000, 77.
24.10000, 68.
24.24000, 82.
24.38000, 93.
24.52000, 69.
24.66000, 62.
24.80000, 78.
24.94000, 67.
25.08000, 68.
25.22000, 99.
25.36000, 67.
25.50000, 64.
25.64000, 72.
25.78000, 67.
25.92000, 71.
26.06000, 68.
26.20000, 58.
26.34000, 61.
26.48000, 52.
26.62000, 67.
26.76000, 45.
26.90000, 49.
27.04000, 49.
27.18000, 49.
27.32000, 57.
27.46000, 58.
27.60000, 47.
27.74000, 52.
27.88000, 45.
28.02000, 44.
28.16000, 48.
28.30000, 51.
28.44000, 48.
28.58000, 46.
28.72000, 48.
28.86000, 44.
29.00000, 39.
29.14000, 36.
29.28000, 35.
29.42000, 41.
29.56000, 38.
29.70000, 38.
29.84000, 38.
29.98000, 38.
30.12000, 25.
30.26000, 34.
30.40000, 41.
30.54000, 35.
30.68000, 41.
30.82000, 37.
30.96000, 30.
31.10000, 32.
31.24000, 37.
31.38000, 33.
31.52000, 40.
31.66000, 39.
31.80000, 35.
31.94000, 40.
32.08000, 32.
32.22000, 29.
32.36000, 28.
32.50000, 29.
32.64000, 31.
32.78000, 28.
32.92000, 30.
33.06000, 25.
33.20000, 26.
33.34000, 24.
33.48000, 18.
33.62000, 24.
33.76000, 23.
33.90000, 13.
34.04000, 27.
34.18000, 25.
34.32000, 22.
34.46000, 29.
34.60000, 25.
34.74000, 22.
34.88000, 22.
35.02000, 16.
35.16000, 23.
35.30000, 21.
35.44000, 15.
35.58000, 17.
35.72000, 14.
35.86000, 21.
36.00000, 14.
36.14000, 23.
36.28000, 16.
36.42000, 20.
36.56000, 13.
36.70000, 12.
36.84000, 11.
36.98000, 9.
37.12000, 8.
37.26000, 6.
37.40000, 8.
37.54000, 16.
37.68000, 14.
37.82000, 15.
37.96000, 10.
38.10000, 12.
38.24000, 14.
38.38000, 9.
38.52000, 11.
38.66000, 9.
38.80000, 5.
38.94000, 4.
39.08000, 4.
39.22000, 2.
39.36000, 7.
39.50000, 5.
39.64000, 7.
39.78000, 4.
39.92000, 5.
40.06000, 7.
40.20000, 7.
40.34000, 5.
40.48000, 3.
40.55000, 0.
#ENDOFDATA   :