Folder: XRFLab/sample_data/data/Spectrum value from standard/Nist2587 (part 2)

File: Spectrum 36.txt
#FORMAT      : EMSA/MAS Spectral Data File
#VERSION     : 1.0
#TITLE       : Spectrum 36
#DATE        : 21-AUG-2025
#TIME        : 15:40
#OWNER       : XGT7200
#NPOINTS     : 4096.
#NCOLUMNS    : 1.
#XUNITS      : keV
#YUNITS      : counts
#DATATYPE    : XY
#XPERCHAN    : 0.0100000
#OFFSET      : -0.400000
#SIGNALTYPE  : EDS
#CHOFFSET    : 40.0000
#LIVETIME    : 30
#REALTIME    : 39.8012
#BEAMKV      : 50.0000
#PROBECUR    : 677000.
#MAGCAM      : 100.000
#XTILTSTGE   : 0.0
#AZIMANGLE   : 0.0
#ELEVANGLE   : 45.0
#XPOSITION mm: 0.0000
#YPOSITION mm: 0.0000
#ZPOSITION mm: 0.0000
##OXINSTPT   : 4
##OXINSTSTROB: 71.96
#SPECTRUM    : Spectral Data Starts Here
-0.40000, 0.
-0.26000, 0.
-0.12000, 0.
0.02000, 0.
0.16000, 0.
0.30000, 0.
0.44000, 49.
0.58000, 45.
0.72000, 51.
0.86000, 40.
1.00000, 58.
1.14000, 49.
1.28000, 68.
1.42000, 186.
1.56000, 231.
1.70000, 4300.
1.84000, 992.
1.98000, 73.
2.12000, 34.
2.26000, 65.
2.40000, 110.
2.54000, 48.
2.68000, 386.
2.82000, 251.
2.96000, 92.
3.10000, 30.
3.24000, 232.
3.38000, 345.
3.52000, 68.
3.66000, 526.
3.80000, 86.
3.94000, 52.
4.08000, 68.
4.22000, 29.
4.36000, 45.
4.50000, 511.
4.64000, 97.
4.78000, 80.
4.92000, 149.
5.06000, 49.
5.20000, 45.
5.34000, 77.
5.48000, 71.
5.62000, 58.
5.76000, 78.
5.90000, 264.
6.04000, 66.
6.18000, 158.
6.32000, 4825.
6.46000, 6954.
6.60000, 152.
6.74000, 85.
6.88000, 169.
7.02000, 1573.
7.16000, 554.
7.30000, 79.
7.44000, 73.
7.58000, 69.
7.72000, 66.
7.86000, 95.
8.00000, 191.
8.14000, 178.
8.28000, 111.
8.42000, 97.
8.56000, 248.
8.70000, 206.
8.84000, 139.
8.98000, 131.
9.12000, 166.
9.26000, 178.
9.40000, 141.
9.54000, 162.
9.68000, 147.
9.82000, 130.
9.96000, 150.
10.10000, 142.
10.24000, 176.
10.38000, 360.
10.52000, 1404.
10.66000, 539.
10.80000, 186.
10.94000, 148.
11.08000, 159.
11.22000, 192.
11.36000, 190.
11.50000, 149.
11.64000, 167.
11.78000, 160.
11.92000, 191.
12.06000, 172.
12.20000, 227.
12.34000, 242.
12.48000, 524.
12.62000, 1280.
12.76000, 459.
12.90000, 208.
13.04000, 240.
13.18000, 192.
13.32000, 235.
13.46000, 200.
13.60000, 171.
13.74000, 155.
13.88000, 176.
14.02000, 216.
14.16000, 305.
14.30000, 152.
14.44000, 172.
14.58000, 201.
14.72000, 306.
14.86000, 272.
15.00000, 223.
15.14000, 213.
15.28000, 179.
15.42000, 157.
15.56000, 214.
15.70000, 436.
15.84000, 353.
15.98000, 163.
16.12000, 147.
16.26000, 160.
16.40000, 164.
16.54000, 197.
16.68000, 158.
16.82000, 164.
16.96000, 128.
17.10000, 179.
17.24000, 199.
17.38000, 207.
17.52000, 206.
17.66000, 224.
17.80000, 229.
17.94000, 238.
18.08000, 240.
18.22000, 270.
18.36000, 405.
18.50000, 590.
18.64000, 839.
18.78000, 967.
18.92000, 903.
19.06000, 695.
19.20000, 480.
19.34000, 331.
19.48000, 230.
19.62000, 212.
19.76000, 196.
19.90000, 269.
20.04000, 451.
20.18000, 572.
20.32000, 302.
20.46000, 160.
20.60000, 190.
20.74000, 216.
20.88000, 247.
21.02000, 258.
21.16000, 244.
21.30000, 209.
21.44000, 184.
21.58000, 152.
21.72000, 144.
21.86000, 123.
22.00000, 128.
22.14000, 105.
22.28000, 89.
22.42000, 79.
22.56000, 105.
22.70000, 129.
22.84000, 101.
22.98000, 98.
23.12000, 80.
23.26000, 107.
23.40000, 78.
23.54000, 67.
23.68000, 85.
23.82000, 82.
23.96000, 71.
24.10000, 67.
24.24000, 51.
24.38000, 67.
24.52000, 79.
24.66000, 58.
24.80000, 73.
24.94000, 64.
25.08000, 60.
25.22000, 69.
25.36000, 86.
25.50000, 73.
25.64000, 68.
25.78000, 76.
25.92000, 65.
26.06000, 50.
26.20000, 64.
26.34000, 51.
26.48000, 77.
26.62000, 57.
26.76000, 39.
26.90000, 55.
27.04000, 53.
27.18000, 55.
27.32000, 58.
27.46000, 53.
27.60000, 53.
27.74000, 47.
27.88000, 48.
28.02000, 47.
28.16000, 46.
28.30000, 52.
28.44000, 47.
28.58000, 39.
28.72000, 44.
28.86000, 38.
29.00000, 65.
29.14000, 37.
29.28000, 43.
29.42000, 35.
29.56000, 49.
29.70000, 42.
29.84000, 34.
29.98000, 34.
30.12000, 38.
30.26000, 28.
30.40000, 33.
30.54000, 35.
30.68000, 38.
30.82000, 37.
30.96000, 35.
31.10000, 25.
31.24000, 24.
31.38000, 19.
31.52000, 21.
31.66000, 33.
31.80000, 27.
31.94000, 29.
32.08000, 46.
32.22000, 33.
32.36000, 26.
32.50000, 35.
32.64000, 21.
32.78000, 27.
32.92000, 28.
33.06000, 31.
33.20000, 22.
33.34000, 19.
33.48000, 23.
33.62000, 22.
33.76000, 16.
33.90000, 25.
34.04000, 24.
34.18000, 21.
34.32000, 18.
34.46000, 17.
34.60000, 14.
34.74000, 21.
34.88000, 18.
35.02000, 18.
35.16000, 11.
35.30000, 12.
35.44000, 14.
35.58000, 22.
35.72000, 20.
35.86000, 15.
36.00000, 16.
36.14000, 15.
36.28000, 23.
36.42000, 8.
36.56000, 12.
36.70000, 20.
36.84000, 10.
36.98000, 7.
37.12000, 11.
37.26000, 15.
37.40000, 10.
37.54000, 8.
37.68000, 12.
37.82000, 11.
37.96000, 11.
38.10000, 7.
38.24000, 7.
38.38000, 12.
38.52000, 10.
38.66000, 10.
38.80000, 8.
38.94000, 9.
39.08000, 11.
39.22000, 5.
39.36000, 6.
39.50000, 7.
39.64000, 4.
39.78000, 6.
39.92000, 8.
40.06000, 5.
40.20000, 2.
40.34000, 3.
40.48000, 7.
40.55000, 0.
#ENDOFDATA   :