Folder: XRFLab/sample_data/data/Spectrum value from standard/Nist2587

Note: README.md
# FpXrF
fundamental parameters GUI for X-ray fluoresence spectroscopy

File: Spectrum 31.txt
#FORMAT      : EMSA/MAS Spectral Data File
#VERSION     : 1.0
#TITLE       : Spectrum 31
#DATE        : 21-AUG-2025
#TIME        : 15:35
#OWNER       : XGT7200
#NPOINTS     : 4096.
#NCOLUMNS    : 1.
#XUNITS      : keV
#YUNITS      : counts
#DATATYPE    : XY
#XPERCHAN    : 0.0100000
#OFFSET      : -0.400000
#SIGNALTYPE  : EDS
#CHOFFSET    : 40.0000
#LIVETIME    : 30
#REALTIME    : 39.5875
#BEAMKV      : 50.0000
#PROBECUR    : 681000.
#MAGCAM      : 100.000
#XTILTSTGE   : 0.0
#AZIMANGLE   : 0.0
#ELEVANGLE   : 45.0
#XPOSITION mm: 0.0000
#YPOSITION mm: 0.0000
#ZPOSITION mm: 0.0000
##OXINSTPT   : 4
##OXINSTSTROB: 72.04
#SPECTRUM    : Spectral Data Starts Here
-0.40000, 0.
-0.26000, 0.
-0.12000, 0.
0.02000, 0.
0.16000, 0.
0.30000, 0.
0.44000, 36.
0.58000, 44.
0.72000, 47.
0.86000, 43.
1.00000, 53.
1.14000, 37.
1.28000, 61.
1.42000, 180.
1.56000, 223.
1.70000, 4419.
1.84000, 1065.
1.98000, 64.
2.12000, 42.
2.26000, 69.
2.40000, 95.
2.54000, 40.
2.68000, 441.
2.82000, 238.
2.96000, 99.
3.10000, 30.
3.24000, 226.
3.38000, 359.
3.52000, 77.
3.66000, 511.
3.80000, 93.
3.94000, 54.
4.08000, 62.
4.22000, 31.
4.36000, 59.
4.50000, 481.
4.64000, 88.
4.78000, 101.
4.92000, 136.
5.06000, 61.
5.20000, 48.
5.34000, 61.
5.48000, 78.
5.62000, 64.
5.76000, 74.
5.90000, 252.
6.04000, 71.
6.18000, 113.
6.32000, 4431.
6.46000, 6584.
6.60000, 170.
6.74000, 97.
6.88000, 158.
7.02000, 1425.
7.16000, 466.
7.30000, 81.
7.44000, 88.
7.58000, 80.
7.72000, 80.
7.86000, 95.
8.00000, 215.
8.14000, 164.
8.28000, 117.
8.42000, 115.
8.56000, 226.
8.70000, 223.
8.84000, 144.
8.98000, 123.
9.12000, 163.
9.26000, 180.
9.40000, 141.
9.54000, 171.
9.68000, 139.
9.82000, 117.
9.96000, 150.
10.10000, 128.
10.24000, 152.
10.38000, 339.
10.52000, 1226.
10.66000, 495.
10.80000, 147.
10.94000, 162.
11.08000, 157.
11.22000, 162.
11.36000, 185.
11.50000, 153.
11.64000, 152.
11.78000, 166.
11.92000, 164.
12.06000, 160.
12.20000, 193.
12.34000, 246.
12.48000, 489.
12.62000, 1151.
12.76000, 423.
12.90000, 211.
13.04000, 201.
13.18000, 185.
13.32000, 239.
13.46000, 203.
13.60000, 173.
13.74000, 181.
13.88000, 176.
14.02000, 234.
14.16000, 310.
14.30000, 193.
14.44000, 154.
14.58000, 184.
14.72000, 338.
14.86000, 281.
15.00000, 187.
15.14000, 205.
15.28000, 179.
15.42000, 146.
15.56000, 235.
15.70000, 463.
15.84000, 366.
15.98000, 163.
16.12000, 159.
16.26000, 170.
16.40000, 158.
16.54000, 173.
16.68000, 163.
16.82000, 161.
16.96000, 180.
17.10000, 183.
17.24000, 182.
17.38000, 165.
17.52000, 233.
17.66000, 231.
17.80000, 224.
17.94000, 227.
18.08000, 247.
18.22000, 281.
18.36000, 418.
18.50000, 601.
18.64000, 835.
18.78000, 1014.
18.92000, 887.
19.06000, 666.
19.20000, 421.
19.34000, 330.
19.48000, 270.
19.62000, 197.
19.76000, 185.
19.90000, 244.
20.04000, 460.
20.18000, 579.
20.32000, 284.
20.46000, 163.
20.60000, 175.
20.74000, 230.
20.88000, 241.
21.02000, 258.
21.16000, 247.
21.30000, 217.
21.44000, 183.
21.58000, 150.
21.72000, 120.
21.86000, 105.
22.00000, 96.
22.14000, 93.
22.28000, 96.
22.42000, 92.
22.56000, 122.
22.70000, 145.
22.84000, 95.
22.98000, 76.
23.12000, 83.
23.26000, 81.
23.40000, 69.
23.54000, 66.
23.68000, 69.
23.82000, 72.
23.96000, 55.
24.10000, 61.
24.24000, 70.
24.38000, 66.
24.52000, 64.
24.66000, 53.
24.80000, 70.
24.94000, 77.
25.08000, 75.
25.22000, 66.
25.36000, 64.
25.50000, 63.
25.64000, 68.
25.78000, 59.
25.92000, 56.
26.06000, 64.
26.20000, 61.
26.34000, 53.
26.48000, 55.
26.62000, 63.
26.76000, 52.
26.90000, 53.
27.04000, 66.
27.18000, 62.
27.32000, 52.
27.46000, 48.
27.60000, 55.
27.74000, 49.
27.88000, 44.
28.02000, 50.
28.16000, 58.
28.30000, 49.
28.44000, 48.
28.58000, 62.
28.72000, 45.
28.86000, 51.
29.00000, 41.
29.14000, 45.
29.28000, 42.
29.42000, 37.
29.56000, 30.
29.70000, 36.
29.84000, 37.
29.98000, 30.
30.12000, 35.
30.26000, 32.
30.40000, 32.
30.54000, 29.
30.68000, 42.
30.82000, 23.
30.96000, 34.
31.10000, 30.
31.24000, 30.
31.38000, 33.
31.52000, 37.
31.66000, 34.
31.80000, 39.
31.94000, 41.
32.08000, 32.
32.22000, 35.
32.36000, 25.
32.50000, 29.
32.64000, 26.
32.78000, 28.
32.92000, 32.
33.06000, 28.
33.20000, 20.
33.34000, 27.
33.48000, 22.
33.62000, 15.
33.76000, 17.
33.90000, 29.
34.04000, 33.
34.18000, 18.
34.32000, 17.
34.46000, 21.
34.60000, 16.
34.74000, 19.
34.88000, 20.
35.02000, 20.
35.16000, 15.
35.30000, 16.
35.44000, 25.
35.58000, 21.
35.72000, 16.
35.86000, 23.
36.00000, 16.
36.14000, 13.
36.28000, 22.
36.42000, 15.
36.56000, 16.
36.70000, 7.
36.84000, 12.
36.98000, 9.
37.12000, 15.
37.26000, 14.
37.40000, 10.
37.54000, 17.
37.68000, 12.
37.82000, 10.
37.96000, 9.
38.10000, 9.
38.24000, 7.
38.38000, 8.
38.52000, 7.
38.66000, 7.
38.80000, 6.
38.94000, 8.
39.08000, 5.
39.22000, 5.
39.36000, 6.
39.50000, 9.
39.64000, 5.
39.78000, 7.
39.92000, 10.
40.06000, 2.
40.20000, 5.
40.34000, 5.
40.48000, 3.
40.55000, 0.
#ENDOFDATA   :

File: Spectrum 32.txt
#FORMAT      : EMSA/MAS Spectral Data File
#VERSION     : 1.0
#TITLE       : Spectrum 32
#DATE        : 21-AUG-2025
#TIME        : 15:36
#OWNER       : XGT7200
#NPOINTS     : 4096.
#NCOLUMNS    : 1.
#XUNITS      : keV
#YUNITS      : counts
#DATATYPE    : XY
#XPERCHAN    : 0.0100000
#OFFSET      : -0.400000
#SIGNALTYPE  : EDS
#CHOFFSET    : 40.0000
#LIVETIME    : 30
#REALTIME    : 39.9673
#BEAMKV      : 50.0000
#PROBECUR    : 725000.
#MAGCAM      : 100.000
#XTILTSTGE   : 0.0
#AZIMANGLE   : 0.0
#ELEVANGLE   : 45.0
#XPOSITION mm: 0.0000
#YPOSITION mm: 0.0000
#ZPOSITION mm: 0.0000
##OXINSTPT   : 4
##OXINSTSTROB: 72.14
#SPECTRUM    : Spectral Data Starts Here
-0.40000, 0.
-0.26000, 0.
-0.12000, 0.
0.02000, 0.
0.16000, 0.
0.30000, 0.
0.44000, 43.
0.58000, 49.
0.72000, 46.
0.86000, 54.
1.00000, 35.
1.14000, 31.
1.28000, 62.
1.42000, 183.
1.56000, 276.
1.70000, 4404.
1.84000, 1046.
1.98000, 83.
2.12000, 39.
2.26000, 59.
2.40000, 101.
2.54000, 51.
2.68000, 381.
2.82000, 230.
2.96000, 95.
3.10000, 26.
3.24000, 217.
3.38000, 357.
3.52000, 72.
3.66000, 628.
3.80000, 120.
3.94000, 65.
4.08000, 69.
4.22000, 36.
4.36000, 55.
4.50000, 661.
4.64000, 125.
4.78000, 63.
4.92000, 150.
5.06000, 58.
5.20000, 71.
5.34000, 75.
5.48000, 81.
5.62000, 54.
5.76000, 71.
5.90000, 253.
6.04000, 87.
6.18000, 117.
6.32000, 4486.
6.46000, 6388.
6.60000, 179.
6.74000, 77.
6.88000, 173.
7.02000, 1496.
7.16000, 507.
7.30000, 80.
7.44000, 104.
7.58000, 91.
7.72000, 85.
7.86000, 102.
8.00000, 208.
8.14000, 182.
8.28000, 142.
8.42000, 124.
8.56000, 276.
8.70000, 260.
8.84000, 135.
8.98000, 146.
9.12000, 160.
9.26000, 198.
9.40000, 142.
9.54000, 198.
9.68000, 151.
9.82000, 140.
9.96000, 150.
10.10000, 140.
10.24000, 158.
10.38000, 349.
10.52000, 1305.
10.66000, 531.
10.80000, 170.
10.94000, 155.
11.08000, 169.
11.22000, 177.
11.36000, 199.
11.50000, 179.
11.64000, 147.
11.78000, 176.
11.92000, 176.
12.06000, 217.
12.20000, 249.
12.34000, 260.
12.48000, 539.
12.62000, 1225.
12.76000, 421.
12.90000, 233.
13.04000, 228.
13.18000, 194.
13.32000, 255.
13.46000, 252.
13.60000, 173.
13.74000, 167.
13.88000, 189.
14.02000, 291.
14.16000, 306.
14.30000, 191.
14.44000, 170.
14.58000, 194.
14.72000, 317.
14.86000, 292.
15.00000, 200.
15.14000, 214.
15.28000, 195.
15.42000, 169.
15.56000, 216.
15.70000, 358.
15.84000, 298.
15.98000, 177.
16.12000, 166.
16.26000, 185.
16.40000, 163.
16.54000, 193.
16.68000, 164.
16.82000, 156.
16.96000, 178.
17.10000, 160.
17.24000, 183.
17.38000, 198.
17.52000, 213.
17.66000, 252.
17.80000, 212.
17.94000, 260.
18.08000, 252.
18.22000, 337.
18.36000, 444.
18.50000, 653.
18.64000, 892.
18.78000, 992.
18.92000, 973.
19.06000, 689.
19.20000, 453.
19.34000, 337.
19.48000, 275.
19.62000, 236.
19.76000, 196.
19.90000, 222.
20.04000, 527.
20.18000, 583.
20.32000, 322.
20.46000, 183.
20.60000, 191.
20.74000, 216.
20.88000, 253.
21.02000, 300.
21.16000, 248.
21.30000, 223.
21.44000, 189.
21.58000, 155.
21.72000, 116.
21.86000, 131.
22.00000, 109.
22.14000, 104.
22.28000, 95.
22.42000, 91.
22.56000, 115.
22.70000, 150.
22.84000, 106.
22.98000, 78.
23.12000, 110.
23.26000, 76.
23.40000, 72.
23.54000, 77.
23.68000, 71.
23.82000, 70.
23.96000, 65.
24.10000, 74.
24.24000, 65.
24.38000, 65.
24.52000, 65.
24.66000, 59.
24.80000, 79.
24.94000, 86.
25.08000, 64.
25.22000, 86.
25.36000, 65.
25.50000, 75.
25.64000, 63.
25.78000, 65.
25.92000, 54.
26.06000, 57.
26.20000, 48.
26.34000, 82.
26.48000, 50.
26.62000, 65.
26.76000, 52.
26.90000, 44.
27.04000, 62.
27.18000, 41.
27.32000, 64.
27.46000, 57.
27.60000, 46.
27.74000, 50.
27.88000, 60.
28.02000, 54.
28.16000, 43.
28.30000, 56.
28.44000, 40.
28.58000, 54.
28.72000, 47.
28.86000, 44.
29.00000, 37.
29.14000, 34.
29.28000, 40.
29.42000, 39.
29.56000, 41.
29.70000, 41.
29.84000, 44.
29.98000, 51.
30.12000, 25.
30.26000, 40.
30.40000, 36.
30.54000, 39.
30.68000, 33.
30.82000, 33.
30.96000, 39.
31.10000, 31.
31.24000, 37.
31.38000, 36.
31.52000, 36.
31.66000, 33.
31.80000, 28.
31.94000, 27.
32.08000, 38.
32.22000, 31.
32.36000, 38.
32.50000, 27.
32.64000, 23.
32.78000, 38.
32.92000, 29.
33.06000, 33.
33.20000, 21.
33.34000, 22.
33.48000, 28.
33.62000, 23.
33.76000, 17.
33.90000, 16.
34.04000, 23.
34.18000, 23.
34.32000, 13.
34.46000, 26.
34.60000, 25.
34.74000, 20.
34.88000, 20.
35.02000, 21.
35.16000, 19.
35.30000, 22.
35.44000, 17.
35.58000, 19.
35.72000, 10.
35.86000, 10.
36.00000, 18.
36.14000, 20.
36.28000, 18.
36.42000, 12.
36.56000, 16.
36.70000, 18.
36.84000, 17.
36.98000, 16.
37.12000, 12.
37.26000, 12.
37.40000, 15.
37.54000, 13.
37.68000, 11.
37.82000, 10.
37.96000, 14.
38.10000, 2.
38.24000, 5.
38.38000, 11.
38.52000, 6.
38.66000, 12.
38.80000, 9.
38.94000, 3.
39.08000, 8.
39.22000, 10.
39.36000, 10.
39.50000, 3.
39.64000, 8.
39.78000, 3.
39.92000, 2.
40.06000, 6.
40.20000, 2.
40.34000, 4.
40.48000, 5.
40.55000, 0.
#ENDOFDATA   :

File: Spectrum 33, NIST 2587.txt
#FORMAT      : EMSA/MAS Spectral Data File
#VERSION     : 1.0
#TITLE       : Spectrum 33
#DATE        : 21-AUG-2025
#TIME        : 15:37
#OWNER       : XGT7200
#NPOINTS     : 4096.
#NCOLUMNS    : 1.
#XUNITS      : keV
#YUNITS      : counts
#DATATYPE    : XY
#XPERCHAN    : 0.0100000
#OFFSET      : -0.400000
#SIGNALTYPE  : EDS
#CHOFFSET    : 40.0000
#LIVETIME    : 30
#REALTIME    : 39.4766
#BEAMKV      : 50.0000
#PROBECUR    : 683000.
#MAGCAM      : 100.000
#XTILTSTGE   : 0.0
#AZIMANGLE   : 0.0
#ELEVANGLE   : 45.0
#XPOSITION mm: 0.0000
#YPOSITION mm: 0.0000
#ZPOSITION mm: 0.0000
##OXINSTPT   : 4
##OXINSTSTROB: 71.83
#SPECTRUM    : Spectral Data Starts Here
-0.40000, 0.
-0.26000, 0.
-0.12000, 0.
0.02000, 0.
0.16000, 0.
0.30000, 0.
0.44000, 33.
0.58000, 44.
0.72000, 46.
0.86000, 41.
1.00000, 42.
1.14000, 33.
1.28000, 47.
1.42000, 167.
1.56000, 215.
1.70000, 4329.
1.84000, 1009.
1.98000, 69.
2.12000, 39.
2.26000, 63.
2.40000, 114.
2.54000, 46.
2.68000, 395.
2.82000, 197.
2.96000, 92.
3.10000, 30.
3.24000, 230.
3.38000, 300.
3.52000, 70.
3.66000, 514.
3.80000, 93.
3.94000, 47.
4.08000, 68.
4.22000, 26.
4.36000, 51.
4.50000, 557.
4.64000, 98.
4.78000, 92.
4.92000, 161.
5.06000, 46.
5.20000, 61.
5.34000, 66.
5.48000, 84.
5.62000, 43.
5.76000, 59.
5.90000, 235.
6.04000, 81.
6.18000, 106.
6.32000, 4235.
6.46000, 6054.
6.60000, 133.
6.74000, 95.
6.88000, 152.
7.02000, 1443.
7.16000, 492.
7.30000, 72.
7.44000, 85.
7.58000, 86.
7.72000, 100.
7.86000, 87.
8.00000, 181.
8.14000, 169.
8.28000, 130.
8.42000, 121.
8.56000, 269.
8.70000, 243.
8.84000, 152.
8.98000, 140.
9.12000, 182.
9.26000, 168.
9.40000, 148.
9.54000, 181.
9.68000, 159.
9.82000, 128.
9.96000, 148.
10.10000, 146.
10.24000, 170.
10.38000, 346.
10.52000, 1289.
10.66000, 509.
10.80000, 161.
10.94000, 167.
11.08000, 158.
11.22000, 182.
11.36000, 187.
11.50000, 159.
11.64000, 163.
11.78000, 156.
11.92000, 167.
12.06000, 223.
12.20000, 212.
12.34000, 246.
12.48000, 488.
12.62000, 1204.
12.76000, 448.
12.90000, 222.
13.04000, 215.
13.18000, 178.
13.32000, 230.
13.46000, 230.
13.60000, 168.
13.74000, 162.
13.88000, 177.
14.02000, 234.
14.16000, 315.
14.30000, 186.
14.44000, 168.
14.58000, 194.
14.72000, 330.
14.86000, 264.
15.00000, 213.
15.14000, 209.
15.28000, 179.
15.42000, 169.
15.56000, 234.
15.70000, 414.
15.84000, 308.
15.98000, 158.
16.12000, 172.
16.26000, 157.
16.40000, 154.
16.54000, 178.
16.68000, 157.
16.82000, 155.
16.96000, 166.
17.10000, 167.
17.24000, 157.
17.38000, 180.
17.52000, 205.
17.66000, 227.
17.80000, 228.
17.94000, 226.
18.08000, 275.
18.22000, 289.
18.36000, 429.
18.50000, 604.
18.64000, 867.
18.78000, 946.
18.92000, 918.
19.06000, 700.
19.20000, 438.
19.34000, 338.
19.48000, 232.
19.62000, 198.
19.76000, 199.
19.90000, 232.
20.04000, 456.
20.18000, 537.
20.32000, 296.
20.46000, 199.
20.60000, 188.
20.74000, 224.
20.88000, 238.
21.02000, 269.
21.16000, 218.
21.30000, 204.
21.44000, 190.
21.58000, 150.
21.72000, 114.
21.86000, 106.
22.00000, 93.
22.14000, 88.
22.28000, 102.
22.42000, 98.
22.56000, 121.
22.70000, 141.
22.84000, 93.
22.98000, 66.
23.12000, 83.
23.26000, 85.
23.40000, 73.
23.54000, 64.
23.68000, 79.
23.82000, 78.
23.96000, 76.
24.10000, 61.
24.24000, 75.
24.38000, 69.
24.52000, 72.
24.66000, 77.
24.80000, 76.
24.94000, 70.
25.08000, 69.
25.22000, 77.
25.36000, 71.
25.50000, 55.
25.64000, 62.
25.78000, 68.
25.92000, 51.
26.06000, 71.
26.20000, 61.
26.34000, 81.
26.48000, 49.
26.62000, 55.
26.76000, 57.
26.90000, 63.
27.04000, 47.
27.18000, 58.
27.32000, 53.
27.46000, 48.
27.60000, 50.
27.74000, 29.
27.88000, 46.
28.02000, 55.
28.16000, 54.
28.30000, 50.
28.44000, 50.
28.58000, 32.
28.72000, 43.
28.86000, 47.
29.00000, 57.
29.14000, 52.
29.28000, 42.
29.42000, 39.
29.56000, 42.
29.70000, 45.
29.84000, 32.
29.98000, 38.
30.12000, 31.
30.26000, 23.
30.40000, 33.
30.54000, 22.
30.68000, 36.
30.82000, 39.
30.96000, 44.
31.10000, 43.
31.24000, 32.
31.38000, 28.
31.52000, 29.
31.66000, 40.
31.80000, 33.
31.94000, 41.
32.08000, 36.
32.22000, 28.
32.36000, 25.
32.50000, 24.
32.64000, 25.
32.78000, 24.
32.92000, 36.
33.06000, 23.
33.20000, 28.
33.34000, 28.
33.48000, 17.
33.62000, 25.
33.76000, 21.
33.90000, 20.
34.04000, 18.
34.18000, 23.
34.32000, 28.
34.46000, 24.
34.60000, 13.
34.74000, 13.
34.88000, 18.
35.02000, 22.
35.16000, 6.
35.30000, 23.
35.44000, 17.
35.58000, 16.
35.72000, 10.
35.86000, 10.
36.00000, 19.
36.14000, 15.
36.28000, 19.
36.42000, 18.
36.56000, 13.
36.70000, 8.
36.84000, 16.
36.98000, 6.
37.12000, 13.
37.26000, 10.
37.40000, 8.
37.54000, 7.
37.68000, 12.
37.82000, 14.
37.96000, 7.
38.10000, 7.
38.24000, 9.
38.38000, 10.
38.52000, 7.
38.66000, 7.
38.80000, 8.
38.94000, 14.
39.08000, 14.
39.22000, 7.
39.36000, 3.
39.50000, 4.
39.64000, 4.
39.78000, 6.
39.92000, 8.
40.06000, 4.
40.20000, 4.
40.34000, 5.
40.48000, 3.
40.55000, 0.
#ENDOFDATA   :

File: Spectrum 34.txt
#FORMAT      : EMSA/MAS Spectral Data File
#VERSION     : 1.0
#TITLE       : Spectrum 34
#DATE        : 21-AUG-2025
#TIME        : 15:38
#OWNER       : XGT7200
#NPOINTS     : 4096.
#NCOLUMNS    : 1.
#XUNITS      : keV
#YUNITS      : counts
#DATATYPE    : XY
#XPERCHAN    : 0.0100000
#OFFSET      : -0.400000
#SIGNALTYPE  : EDS
#CHOFFSET    : 40.0000
#LIVETIME    : 30
#REALTIME    : 39.7459
#BEAMKV      : 50.0000
#PROBECUR    : 688000.
#MAGCAM      : 100.000
#XTILTSTGE   : 0.0
#AZIMANGLE   : 0.0
#ELEVANGLE   : 45.0
#XPOSITION mm: 0.0000
#YPOSITION mm: 0.0000
#ZPOSITION mm: 0.0000
##OXINSTPT   : 4
##OXINSTSTROB: 72.11
#SPECTRUM    : Spectral Data Starts Here
-0.40000, 0.
-0.26000, 0.
-0.12000, 0.
0.02000, 0.
0.16000, 0.
0.30000, 0.
0.44000, 49.
0.58000, 58.
0.72000, 60.
0.86000, 41.
1.00000, 44.
1.14000, 46.
1.28000, 74.
1.42000, 193.
1.56000, 279.
1.70000, 4137.
1.84000, 964.
1.98000, 68.
2.12000, 30.
2.26000, 55.
2.40000, 128.
2.54000, 40.
2.68000, 428.
2.82000, 361.
2.96000, 106.
3.10000, 32.
3.24000, 247.
3.38000, 345.
3.52000, 79.
3.66000, 476.
3.80000, 72.
3.94000, 56.
4.08000, 61.
4.22000, 27.
4.36000, 47.
4.50000, 614.
4.64000, 100.
4.78000, 78.
4.92000, 151.
5.06000, 57.
5.20000, 74.
5.34000, 72.
5.48000, 95.
5.62000, 76.
5.76000, 64.
5.90000, 226.
6.04000, 61.
6.18000, 113.
6.32000, 4503.
6.46000, 6436.
6.60000, 155.
6.74000, 106.
6.88000, 177.
7.02000, 1469.
7.16000, 466.
7.30000, 78.
7.44000, 100.
7.58000, 83.
7.72000, 90.
7.86000, 104.
8.00000, 198.
8.14000, 164.
8.28000, 109.
8.42000, 129.
8.56000, 253.
8.70000, 259.
8.84000, 135.
8.98000, 131.
9.12000, 169.
9.26000, 180.
9.40000, 162.
9.54000, 180.
9.68000, 156.
9.82000, 155.
9.96000, 134.
10.10000, 147.
10.24000, 165.
10.38000, 382.
10.52000, 1294.
10.66000, 516.
10.80000, 155.
10.94000, 160.
11.08000, 193.
11.22000, 211.
11.36000, 175.
11.50000, 153.
11.64000, 166.
11.78000, 168.
11.92000, 157.
12.06000, 172.
12.20000, 210.
12.34000, 272.
12.48000, 543.
12.62000, 1278.
12.76000, 448.
12.90000, 260.
13.04000, 207.
13.18000, 198.
13.32000, 229.
13.46000, 220.
13.60000, 162.
13.74000, 182.
13.88000, 188.
14.02000, 235.
14.16000, 297.
14.30000, 207.
14.44000, 183.
14.58000, 173.
14.72000, 349.
14.86000, 268.
15.00000, 224.
15.14000, 211.
15.28000, 203.
15.42000, 163.
15.56000, 217.
15.70000, 380.
15.84000, 311.
15.98000, 155.
16.12000, 178.
16.26000, 152.
16.40000, 162.
16.54000, 171.
16.68000, 186.
16.82000, 158.
16.96000, 155.
17.10000, 169.
17.24000, 181.
17.38000, 174.
17.52000, 196.
17.66000, 207.
17.80000, 235.
17.94000, 270.
18.08000, 260.
18.22000, 327.
18.36000, 386.
18.50000, 596.
18.64000, 839.
18.78000, 979.
18.92000, 892.
19.06000, 703.
19.20000, 459.
19.34000, 344.
19.48000, 257.
19.62000, 202.
19.76000, 197.
19.90000, 247.
20.04000, 454.
20.18000, 558.
20.32000, 334.
20.46000, 188.
20.60000, 181.
20.74000, 220.
20.88000, 262.
21.02000, 278.
21.16000, 250.
21.30000, 237.
21.44000, 180.
21.58000, 144.
21.72000, 123.
21.86000, 119.
22.00000, 87.
22.14000, 79.
22.28000, 98.
22.42000, 90.
22.56000, 123.
22.70000, 140.
22.84000, 98.
22.98000, 79.
23.12000, 81.
23.26000, 89.
23.40000, 83.
23.54000, 79.
23.68000, 70.
23.82000, 84.
23.96000, 76.
24.10000, 82.
24.24000, 67.
24.38000, 64.
24.52000, 74.
24.66000, 60.
24.80000, 77.
24.94000, 73.
25.08000, 66.
25.22000, 89.
25.36000, 65.
25.50000, 58.
25.64000, 67.
25.78000, 61.
25.92000, 53.
26.06000, 58.
26.20000, 63.
26.34000, 61.
26.48000, 65.
26.62000, 59.
26.76000, 48.
26.90000, 46.
27.04000, 60.
27.18000, 70.
27.32000, 65.
27.46000, 47.
27.60000, 33.
27.74000, 46.
27.88000, 49.
28.02000, 39.
28.16000, 48.
28.30000, 49.
28.44000, 42.
28.58000, 39.
28.72000, 51.
28.86000, 53.
29.00000, 42.
29.14000, 37.
29.28000, 43.
29.42000, 46.
29.56000, 27.
29.70000, 28.
29.84000, 38.
29.98000, 40.
30.12000, 34.
30.26000, 33.
30.40000, 18.
30.54000, 41.
30.68000, 40.
30.82000, 26.
30.96000, 34.
31.10000, 42.
31.24000, 46.
31.38000, 31.
31.52000, 30.
31.66000, 30.
31.80000, 31.
31.94000, 43.
32.08000, 36.
32.22000, 37.
32.36000, 45.
32.50000, 29.
32.64000, 25.
32.78000, 26.
32.92000, 26.
33.06000, 28.
33.20000, 30.
33.34000, 25.
33.48000, 26.
33.62000, 18.
33.76000, 17.
33.90000, 21.
34.04000, 21.
34.18000, 27.
34.32000, 14.
34.46000, 13.
34.60000, 20.
34.74000, 19.
34.88000, 20.
35.02000, 18.
35.16000, 20.
35.30000, 17.
35.44000, 15.
35.58000, 16.
35.72000, 13.
35.86000, 11.
36.00000, 19.
36.14000, 11.
36.28000, 17.
36.42000, 20.
36.56000, 16.
36.70000, 7.
36.84000, 13.
36.98000, 16.
37.12000, 12.
37.26000, 12.
37.40000, 10.
37.54000, 16.
37.68000, 7.
37.82000, 8.
37.96000, 6.
38.10000, 9.
38.24000, 8.
38.38000, 11.
38.52000, 9.
38.66000, 5.
38.80000, 5.
38.94000, 16.
39.08000, 8.
39.22000, 10.
39.36000, 9.
39.50000, 8.
39.64000, 9.
39.78000, 6.
39.92000, 5.
40.06000, 4.
40.20000, 2.
40.34000, 2.
40.48000, 10.
40.55000, 0.
#ENDOFDATA   :

File: Spectrum 35.txt
#FORMAT      : EMSA/MAS Spectral Data File
#VERSION     : 1.0
#TITLE       : Spectrum 35
#DATE        : 21-AUG-2025
#TIME        : 15:39
#OWNER       : XGT7200
#NPOINTS     : 4096.
#NCOLUMNS    : 1.
#XUNITS      : keV
#YUNITS      : counts
#DATATYPE    : XY
#XPERCHAN    : 0.0100000
#OFFSET      : -0.400000
#SIGNALTYPE  : EDS
#CHOFFSET    : 40.0000
#LIVETIME    : 30
#REALTIME    : 39.7465
#BEAMKV      : 50.0000
#PROBECUR    : 690000.
#MAGCAM      : 100.000
#XTILTSTGE   : 0.0
#AZIMANGLE   : 0.0
#ELEVANGLE   : 45.0
#XPOSITION mm: 0.0000
#YPOSITION mm: 0.0000
#ZPOSITION mm: 0.0000
##OXINSTPT   : 4
##OXINSTSTROB: 72.07
#SPECTRUM    : Spectral Data Starts Here
-0.40000, 0.
-0.26000, 0.
-0.12000, 0.
0.02000, 0.
0.16000, 0.
0.30000, 0.
0.44000, 38.
0.58000, 52.
0.72000, 43.
0.86000, 42.
1.00000, 34.
1.14000, 32.
1.28000, 61.
1.42000, 180.
1.56000, 248.
1.70000, 4519.
1.84000, 1065.
1.98000, 77.
2.12000, 34.
2.26000, 78.
2.40000, 108.
2.54000, 44.
2.68000, 377.
2.82000, 238.
2.96000, 81.
3.10000, 44.
3.24000, 217.
3.38000, 331.
3.52000, 94.
3.66000, 472.
3.80000, 94.
3.94000, 56.
4.08000, 60.
4.22000, 28.
4.36000, 38.
4.50000, 477.
4.64000, 116.
4.78000, 80.
4.92000, 131.
5.06000, 58.
5.20000, 71.
5.34000, 53.
5.48000, 65.
5.62000, 68.
5.76000, 80.
5.90000, 233.
6.04000, 92.
6.18000, 111.
6.32000, 4430.
6.46000, 6376.
6.60000, 153.
6.74000, 87.
6.88000, 155.
7.02000, 1491.
7.16000, 488.
7.30000, 82.
7.44000, 82.
7.58000, 82.
7.72000, 59.
7.86000, 112.
8.00000, 173.
8.14000, 182.
8.28000, 131.
8.42000, 125.
8.56000, 241.
8.70000, 235.
8.84000, 158.
8.98000, 143.
9.12000, 171.
9.26000, 173.
9.40000, 124.
9.54000, 168.
9.68000, 132.
9.82000, 138.
9.96000, 156.
10.10000, 155.
10.24000, 139.
10.38000, 344.
10.52000, 1364.
10.66000, 589.
10.80000, 148.
10.94000, 169.
11.08000, 162.
11.22000, 181.
11.36000, 150.
11.50000, 163.
11.64000, 158.
11.78000, 146.
11.92000, 195.
12.06000, 183.
12.20000, 222.
12.34000, 244.
12.48000, 565.
12.62000, 1407.
12.76000, 453.
12.90000, 250.
13.04000, 221.
13.18000, 188.
13.32000, 243.
13.46000, 231.
13.60000, 187.
13.74000, 152.
13.88000, 163.
14.02000, 230.
14.16000, 293.
14.30000, 195.
14.44000, 163.
14.58000, 203.
14.72000, 357.
14.86000, 268.
15.00000, 220.
15.14000, 223.
15.28000, 174.
15.42000, 162.
15.56000, 241.
15.70000, 426.
15.84000, 362.
15.98000, 166.
16.12000, 165.
16.26000, 172.
16.40000, 182.
16.54000, 193.
16.68000, 179.
16.82000, 158.
16.96000, 179.
17.10000, 157.
17.24000, 181.
17.38000, 177.
17.52000, 197.
17.66000, 252.
17.80000, 222.
17.94000, 235.
18.08000, 270.
18.22000, 319.
18.36000, 407.
18.50000, 592.
18.64000, 905.
18.78000, 1022.
18.92000, 860.
19.06000, 664.
19.20000, 474.
19.34000, 311.
19.48000, 242.
19.62000, 199.
19.76000, 191.
19.90000, 236.
20.04000, 426.
20.18000, 592.
20.32000, 329.
20.46000, 162.
20.60000, 179.
20.74000, 230.
20.88000, 247.
21.02000, 292.
21.16000, 273.
21.30000, 199.
21.44000, 191.
21.58000, 150.
21.72000, 124.
21.86000, 111.
22.00000, 97.
22.14000, 92.
22.28000, 85.
22.42000, 111.
22.56000, 111.
22.70000, 184.
22.84000, 95.
22.98000, 82.
23.12000, 86.
23.26000, 93.
23.40000, 56.
23.54000, 72.
23.68000, 65.
23.82000, 70.
23.96000, 63.
24.10000, 70.
24.24000, 73.
24.38000, 73.
24.52000, 73.
24.66000, 66.
24.80000, 56.
24.94000, 66.
25.08000, 72.
25.22000, 85.
25.36000, 77.
25.50000, 45.
25.64000, 63.
25.78000, 51.
25.92000, 70.
26.06000, 66.
26.20000, 63.
26.34000, 37.
26.48000, 57.
26.62000, 45.
26.76000, 49.
26.90000, 49.
27.04000, 53.
27.18000, 59.
27.32000, 49.
27.46000, 58.
27.60000, 44.
27.74000, 44.
27.88000, 51.
28.02000, 38.
28.16000, 40.
28.30000, 53.
28.44000, 51.
28.58000, 53.
28.72000, 47.
28.86000, 53.
29.00000, 36.
29.14000, 44.
29.28000, 39.
29.42000, 36.
29.56000, 36.
29.70000, 42.
29.84000, 41.
29.98000, 35.
30.12000, 45.
30.26000, 35.
30.40000, 36.
30.54000, 43.
30.68000, 30.
30.82000, 35.
30.96000, 28.
31.10000, 32.
31.24000, 28.
31.38000, 32.
31.52000, 38.
31.66000, 37.
31.80000, 31.
31.94000, 36.
32.08000, 38.
32.22000, 49.
32.36000, 32.
32.50000, 30.
32.64000, 25.
32.78000, 27.
32.92000, 21.
33.06000, 29.
33.20000, 31.
33.34000, 16.
33.48000, 31.
33.62000, 17.
33.76000, 29.
33.90000, 22.
34.04000, 19.
34.18000, 21.
34.32000, 21.
34.46000, 21.
34.60000, 17.
34.74000, 18.
34.88000, 18.
35.02000, 15.
35.16000, 7.
35.30000, 7.
35.44000, 18.
35.58000, 20.
35.72000, 15.
35.86000, 20.
36.00000, 17.
36.14000, 12.
36.28000, 13.
36.42000, 14.
36.56000, 11.
36.70000, 9.
36.84000, 14.
36.98000, 9.
37.12000, 12.
37.26000, 13.
37.40000, 7.
37.54000, 4.
37.68000, 13.
37.82000, 10.
37.96000, 12.
38.10000, 11.
38.24000, 13.
38.38000, 11.
38.52000, 9.
38.66000, 6.
38.80000, 9.
38.94000, 9.
39.08000, 7.
39.22000, 10.
39.36000, 7.
39.50000, 7.
39.64000, 16.
39.78000, 8.
39.92000, 5.
40.06000, 3.
40.20000, 3.
40.34000, 8.
40.48000, 4.
40.55000, 0.
#ENDOFDATA   :