Folder: XRFLab/sample_data/data/Spectrum value from standard/Nist 2586

Note: README.md
# FpXrF
fundamental parameters GUI for X-ray fluoresence spectroscopy

File: Spectrum 25.txt
#FORMAT      : EMSA/MAS Spectral Data File
#VERSION     : 1.0
#TITLE       : Spectrum 25
#DATE        : 21-AUG-2025
#TIME        : 15:29
#OWNER       : XGT7200
#NPOINTS     : 4096.
#NCOLUMNS    : 1.
#XUNITS      : keV
#YUNITS      : counts
#DATATYPE    : XY
#XPERCHAN    : 0.0100000
#OFFSET      : -0.400000
#SIGNALTYPE  : EDS
#CHOFFSET    : 40.0000
#LIVETIME    : 30
#REALTIME    : 39.6969
#BEAMKV      : 50.0000
#PROBECUR    : 673000.
#MAGCAM      : 100.000
#XTILTSTGE   : 0.0
#AZIMANGLE   : 0.0
#ELEVANGLE   : 45.0
#XPOSITION mm: 0.0000
#YPOSITION mm: 0.0000
#ZPOSITION mm: 0.0000
##OXINSTPT   : 4
##OXINSTSTROB: 71.77
#SPECTRUM    : Spectral Data Starts Here
-0.40000, 0.
-0.26000, 0.
-0.12000, 0.
0.02000, 0.
0.16000, 0.
0.30000, 0.
0.44000, 42.
0.58000, 41.
0.72000, 37.
0.86000, 32.
1.00000, 34.
1.14000, 40.
1.28000, 70.
1.42000, 176.
1.56000, 251.
1.70000, 3592.
1.84000, 794.
1.98000, 65.
2.12000, 27.
2.26000, 47.
2.40000, 41.
2.54000, 42.
2.68000, 429.
2.82000, 292.
2.96000, 98.
3.10000, 37.
3.24000, 149.
3.38000, 231.
3.52000, 52.
3.66000, 1059.
3.80000, 182.
3.94000, 86.
4.08000, 106.
4.22000, 38.
4.36000, 49.
4.50000, 1025.
4.64000, 137.
4.78000, 67.
4.92000, 232.
5.06000, 56.
5.20000, 60.
5.34000, 99.
5.48000, 99.
5.62000, 61.
5.76000, 81.
5.90000, 302.
6.04000, 110.
6.18000, 126.
6.32000, 7168.
6.46000, 10113.
6.60000, 189.
6.74000, 146.
6.88000, 240.
7.02000, 2363.
7.16000, 745.
7.30000, 73.
7.44000, 106.
7.58000, 68.
7.72000, 80.
7.86000, 128.
8.00000, 160.
8.14000, 175.
8.28000, 93.
8.42000, 102.
8.56000, 217.
8.70000, 184.
8.84000, 115.
8.98000, 122.
9.12000, 114.
9.26000, 132.
9.40000, 137.
9.54000, 142.
9.68000, 144.
9.82000, 150.
9.96000, 130.
10.10000, 132.
10.24000, 136.
10.38000, 191.
10.52000, 256.
10.66000, 152.
10.80000, 139.
10.94000, 123.
11.08000, 156.
11.22000, 128.
11.36000, 166.
11.50000, 139.
11.64000, 138.
11.78000, 142.
11.92000, 135.
12.06000, 125.
12.20000, 155.
12.34000, 145.
12.48000, 184.
12.62000, 287.
12.76000, 207.
12.90000, 170.
13.04000, 159.
13.18000, 152.
13.32000, 186.
13.46000, 189.
13.60000, 143.
13.74000, 146.
13.88000, 139.
14.02000, 191.
14.16000, 226.
14.30000, 141.
14.44000, 141.
14.58000, 125.
14.72000, 162.
14.86000, 179.
15.00000, 137.
15.14000, 163.
15.28000, 139.
15.42000, 167.
15.56000, 193.
15.70000, 369.
15.84000, 300.
15.98000, 146.
16.12000, 156.
16.26000, 144.
16.40000, 156.
16.54000, 172.
16.68000, 163.
16.82000, 181.
16.96000, 154.
17.10000, 103.
17.24000, 145.
17.38000, 143.
17.52000, 176.
17.66000, 220.
17.80000, 169.
17.94000, 190.
18.08000, 233.
18.22000, 268.
18.36000, 386.
18.50000, 547.
18.64000, 758.
18.78000, 882.
18.92000, 817.
19.06000, 601.
19.20000, 370.
19.34000, 307.
19.48000, 251.
19.62000, 196.
19.76000, 141.
19.90000, 194.
20.04000, 423.
20.18000, 488.
20.32000, 249.
20.46000, 175.
20.60000, 154.
20.74000, 209.
20.88000, 231.
21.02000, 214.
21.16000, 201.
21.30000, 182.
21.44000, 146.
21.58000, 123.
21.72000, 106.
21.86000, 102.
22.00000, 94.
22.14000, 84.
22.28000, 99.
22.42000, 77.
22.56000, 97.
22.70000, 126.
22.84000, 107.
22.98000, 94.
23.12000, 78.
23.26000, 65.
23.40000, 77.
23.54000, 70.
23.68000, 55.
23.82000, 61.
23.96000, 54.
24.10000, 68.
24.24000, 52.
24.38000, 56.
24.52000, 68.
24.66000, 59.
24.80000, 65.
24.94000, 54.
25.08000, 68.
25.22000, 76.
25.36000, 64.
25.50000, 56.
25.64000, 51.
25.78000, 59.
25.92000, 55.
26.06000, 54.
26.20000, 52.
26.34000, 58.
26.48000, 64.
26.62000, 60.
26.76000, 63.
26.90000, 34.
27.04000, 50.
27.18000, 37.
27.32000, 50.
27.46000, 47.
27.60000, 47.
27.74000, 35.
27.88000, 44.
28.02000, 40.
28.16000, 49.
28.30000, 49.
28.44000, 34.
28.58000, 30.
28.72000, 37.
28.86000, 33.
29.00000, 40.
29.14000, 27.
29.28000, 39.
29.42000, 45.
29.56000, 43.
29.70000, 34.
29.84000, 30.
29.98000, 33.
30.12000, 39.
30.26000, 34.
30.40000, 35.
30.54000, 34.
30.68000, 42.
30.82000, 33.
30.96000, 32.
31.10000, 26.
31.24000, 29.
31.38000, 32.
31.52000, 27.
31.66000, 21.
31.80000, 41.
31.94000, 29.
32.08000, 33.
32.22000, 40.
32.36000, 26.
32.50000, 15.
32.64000, 20.
32.78000, 23.
32.92000, 21.
33.06000, 22.
33.20000, 21.
33.34000, 12.
33.48000, 27.
33.62000, 16.
33.76000, 21.
33.90000, 22.
34.04000, 26.
34.18000, 27.
34.32000, 16.
34.46000, 8.
34.60000, 15.
34.74000, 17.
34.88000, 11.
35.02000, 10.
35.16000, 19.
35.30000, 19.
35.44000, 10.
35.58000, 22.
35.72000, 17.
35.86000, 8.
36.00000, 16.
36.14000, 11.
36.28000, 13.
36.42000, 9.
36.56000, 9.
36.70000, 9.
36.84000, 10.
36.98000, 9.
37.12000, 8.
37.26000, 11.
37.40000, 11.
37.54000, 15.
37.68000, 9.
37.82000, 14.
37.96000, 7.
38.10000, 8.
38.24000, 3.
38.38000, 5.
38.52000, 6.
38.66000, 2.
38.80000, 4.
38.94000, 8.
39.08000, 9.
39.22000, 6.
39.36000, 6.
39.50000, 8.
39.64000, 5.
39.78000, 6.
39.92000, 5.
40.06000, 7.
40.20000, 4.
40.34000, 6.
40.48000, 2.
40.55000, 0.
#ENDOFDATA   :

File: Spectrum 26.txt
#FORMAT      : EMSA/MAS Spectral Data File
#VERSION     : 1.0
#TITLE       : Spectrum 26
#DATE        : 21-AUG-2025
#TIME        : 15:30
#OWNER       : XGT7200
#NPOINTS     : 4096.
#NCOLUMNS    : 1.
#XUNITS      : keV
#YUNITS      : counts
#DATATYPE    : XY
#XPERCHAN    : 0.0100000
#OFFSET      : -0.400000
#SIGNALTYPE  : EDS
#CHOFFSET    : 40.0000
#LIVETIME    : 30
#REALTIME    : 39.6994
#BEAMKV      : 50.0000
#PROBECUR    : 673000.
#MAGCAM      : 100.000
#XTILTSTGE   : 0.0
#AZIMANGLE   : 0.0
#ELEVANGLE   : 45.0
#XPOSITION mm: 0.0000
#YPOSITION mm: 0.0000
#ZPOSITION mm: 0.0000
##OXINSTPT   : 4
##OXINSTSTROB: 71.95
#SPECTRUM    : Spectral Data Starts Here
-0.40000, 0.
-0.26000, 0.
-0.12000, 0.
0.02000, 0.
0.16000, 0.
0.30000, 0.
0.44000, 45.
0.58000, 46.
0.72000, 35.
0.86000, 40.
1.00000, 38.
1.14000, 36.
1.28000, 94.
1.42000, 195.
1.56000, 251.
1.70000, 3582.
1.84000, 803.
1.98000, 76.
2.12000, 26.
2.26000, 45.
2.40000, 44.
2.54000, 57.
2.68000, 471.
2.82000, 277.
2.96000, 84.
3.10000, 34.
3.24000, 147.
3.38000, 223.
3.52000, 56.
3.66000, 1149.
3.80000, 190.
3.94000, 81.
4.08000, 118.
4.22000, 33.
4.36000, 53.
4.50000, 741.
4.64000, 142.
4.78000, 60.
4.92000, 165.
5.06000, 60.
5.20000, 43.
5.34000, 94.
5.48000, 100.
5.62000, 60.
5.76000, 77.
5.90000, 325.
6.04000, 100.
6.18000, 166.
6.32000, 7306.
6.46000, 10514.
6.60000, 175.
6.74000, 101.
6.88000, 223.
7.02000, 2490.
7.16000, 773.
7.30000, 72.
7.44000, 93.
7.58000, 81.
7.72000, 67.
7.86000, 103.
8.00000, 150.
8.14000, 156.
8.28000, 109.
8.42000, 118.
8.56000, 184.
8.70000, 226.
8.84000, 120.
8.98000, 114.
9.12000, 112.
9.26000, 133.
9.40000, 113.
9.54000, 124.
9.68000, 147.
9.82000, 104.
9.96000, 121.
10.10000, 127.
10.24000, 139.
10.38000, 134.
10.52000, 264.
10.66000, 174.
10.80000, 112.
10.94000, 123.
11.08000, 141.
11.22000, 129.
11.36000, 112.
11.50000, 153.
11.64000, 127.
11.78000, 145.
11.92000, 151.
12.06000, 119.
12.20000, 154.
12.34000, 141.
12.48000, 162.
12.62000, 276.
12.76000, 203.
12.90000, 146.
13.04000, 151.
13.18000, 154.
13.32000, 164.
13.46000, 179.
13.60000, 161.
13.74000, 142.
13.88000, 133.
14.02000, 205.
14.16000, 202.
14.30000, 154.
14.44000, 134.
14.58000, 155.
14.72000, 178.
14.86000, 160.
15.00000, 163.
15.14000, 139.
15.28000, 148.
15.42000, 162.
15.56000, 200.
15.70000, 363.
15.84000, 256.
15.98000, 156.
16.12000, 139.
16.26000, 151.
16.40000, 129.
16.54000, 175.
16.68000, 141.
16.82000, 162.
16.96000, 143.
17.10000, 134.
17.24000, 160.
17.38000, 150.
17.52000, 176.
17.66000, 202.
17.80000, 193.
17.94000, 198.
18.08000, 236.
18.22000, 300.
18.36000, 367.
18.50000, 577.
18.64000, 734.
18.78000, 826.
18.92000, 753.
19.06000, 570.
19.20000, 376.
19.34000, 284.
19.48000, 216.
19.62000, 171.
19.76000, 161.
19.90000, 210.
20.04000, 402.
20.18000, 533.
20.32000, 277.
20.46000, 129.
20.60000, 160.
20.74000, 184.
20.88000, 235.
21.02000, 240.
21.16000, 206.
21.30000, 195.
21.44000, 149.
21.58000, 139.
21.72000, 130.
21.86000, 88.
22.00000, 96.
22.14000, 76.
22.28000, 93.
22.42000, 84.
22.56000, 111.
22.70000, 140.
22.84000, 96.
22.98000, 87.
23.12000, 73.
23.26000, 81.
23.40000, 74.
23.54000, 70.
23.68000, 65.
23.82000, 59.
23.96000, 59.
24.10000, 74.
24.24000, 67.
24.38000, 55.
24.52000, 65.
24.66000, 56.
24.80000, 47.
24.94000, 63.
25.08000, 60.
25.22000, 59.
25.36000, 53.
25.50000, 66.
25.64000, 42.
25.78000, 53.
25.92000, 68.
26.06000, 53.
26.20000, 48.
26.34000, 52.
26.48000, 58.
26.62000, 45.
26.76000, 46.
26.90000, 51.
27.04000, 41.
27.18000, 57.
27.32000, 43.
27.46000, 46.
27.60000, 42.
27.74000, 30.
27.88000, 41.
28.02000, 34.
28.16000, 43.
28.30000, 35.
28.44000, 39.
28.58000, 30.
28.72000, 44.
28.86000, 39.
29.00000, 29.
29.14000, 45.
29.28000, 37.
29.42000, 47.
29.56000, 34.
29.70000, 46.
29.84000, 38.
29.98000, 31.
30.12000, 29.
30.26000, 34.
30.40000, 33.
30.54000, 34.
30.68000, 28.
30.82000, 27.
30.96000, 34.
31.10000, 25.
31.24000, 24.
31.38000, 33.
31.52000, 24.
31.66000, 21.
31.80000, 27.
31.94000, 24.
32.08000, 25.
32.22000, 28.
32.36000, 15.
32.50000, 26.
32.64000, 26.
32.78000, 29.
32.92000, 19.
33.06000, 15.
33.20000, 28.
33.34000, 19.
33.48000, 15.
33.62000, 26.
33.76000, 18.
33.90000, 14.
34.04000, 18.
34.18000, 21.
34.32000, 20.
34.46000, 20.
34.60000, 13.
34.74000, 16.
34.88000, 19.
35.02000, 27.
35.16000, 20.
35.30000, 16.
35.44000, 11.
35.58000, 18.
35.72000, 14.
35.86000, 10.
36.00000, 13.
36.14000, 12.
36.28000, 18.
36.42000, 26.
36.56000, 10.
36.70000, 9.
36.84000, 14.
36.98000, 12.
37.12000, 7.
37.26000, 18.
37.40000, 11.
37.54000, 10.
37.68000, 13.
37.82000, 10.
37.96000, 16.
38.10000, 7.
38.24000, 5.
38.38000, 14.
38.52000, 6.
38.66000, 4.
38.80000, 9.
38.94000, 8.
39.08000, 8.
39.22000, 7.
39.36000, 6.
39.50000, 10.
39.64000, 2.
39.78000, 2.
39.92000, 3.
40.06000, 3.
40.20000, 4.
40.34000, 6.
40.48000, 4.
40.55000, 0.
#ENDOFDATA   :

File: Spectrum 28.txt
#FORMAT      : EMSA/MAS Spectral Data File
#VERSION     : 1.0
#TITLE       : Spectrum 28
#DATE        : 21-AUG-2025
#TIME        : 15:32
#OWNER       : XGT7200
#NPOINTS     : 4096.
#NCOLUMNS    : 1.
#XUNITS      : keV
#YUNITS      : counts
#DATATYPE    : XY
#XPERCHAN    : 0.0100000
#OFFSET      : -0.400000
#SIGNALTYPE  : EDS
#CHOFFSET    : 40.0000
#LIVETIME    : 30
#REALTIME    : 39.7353
#BEAMKV      : 50.0000
#PROBECUR    : 691000.
#MAGCAM      : 100.000
#XTILTSTGE   : 0.0
#AZIMANGLE   : 0.0
#ELEVANGLE   : 45.0
#XPOSITION mm: 0.0000
#YPOSITION mm: 0.0000
#ZPOSITION mm: 0.0000
##OXINSTPT   : 4
##OXINSTSTROB: 72.09
#SPECTRUM    : Spectral Data Starts Here
-0.40000, 0.
-0.26000, 0.
-0.12000, 0.
0.02000, 0.
0.16000, 0.
0.30000, 0.
0.44000, 37.
0.58000, 49.
0.72000, 33.
0.86000, 31.
1.00000, 39.
1.14000, 31.
1.28000, 71.
1.42000, 186.
1.56000, 238.
1.70000, 3310.
1.84000, 787.
1.98000, 53.
2.12000, 34.
2.26000, 38.
2.40000, 39.
2.54000, 51.
2.68000, 490.
2.82000, 336.
2.96000, 93.
3.10000, 37.
3.24000, 136.
3.38000, 192.
3.52000, 68.
3.66000, 1033.
3.80000, 165.
3.94000, 120.
4.08000, 106.
4.22000, 32.
4.36000, 45.
4.50000, 881.
4.64000, 142.
4.78000, 68.
4.92000, 180.
5.06000, 51.
5.20000, 52.
5.34000, 91.
5.48000, 106.
5.62000, 73.
5.76000, 73.
5.90000, 283.
6.04000, 93.
6.18000, 162.
6.32000, 7321.
6.46000, 10329.
6.60000, 209.
6.74000, 97.
6.88000, 217.
7.02000, 2381.
7.16000, 747.
7.30000, 82.
7.44000, 94.
7.58000, 63.
7.72000, 76.
7.86000, 79.
8.00000, 142.
8.14000, 129.
8.28000, 110.
8.42000, 123.
8.56000, 191.
8.70000, 240.
8.84000, 119.
8.98000, 119.
9.12000, 117.
9.26000, 123.
9.40000, 131.
9.54000, 134.
9.68000, 118.
9.82000, 126.
9.96000, 123.
10.10000, 123.
10.24000, 126.
10.38000, 155.
10.52000, 256.
10.66000, 171.
10.80000, 137.
10.94000, 144.
11.08000, 133.
11.22000, 120.
11.36000, 134.
11.50000, 137.
11.64000, 132.
11.78000, 115.
11.92000, 130.
12.06000, 141.
12.20000, 127.
12.34000, 136.
12.48000, 186.
12.62000, 289.
12.76000, 200.
12.90000, 147.
13.04000, 145.
13.18000, 170.
13.32000, 187.
13.46000, 171.
13.60000, 158.
13.74000, 131.
13.88000, 138.
14.02000, 193.
14.16000, 221.
14.30000, 146.
14.44000, 117.
14.58000, 162.
14.72000, 156.
14.86000, 153.
15.00000, 172.
15.14000, 148.
15.28000, 152.
15.42000, 156.
15.56000, 218.
15.70000, 415.
15.84000, 274.
15.98000, 154.
16.12000, 134.
16.26000, 160.
16.40000, 144.
16.54000, 146.
16.68000, 160.
16.82000, 138.
16.96000, 121.
17.10000, 156.
17.24000, 143.
17.38000, 182.
17.52000, 197.
17.66000, 207.
17.80000, 225.
17.94000, 222.
18.08000, 220.
18.22000, 241.
18.36000, 387.
18.50000, 505.
18.64000, 732.
18.78000, 873.
18.92000, 794.
19.06000, 602.
19.20000, 414.
19.34000, 299.
19.48000, 218.
19.62000, 194.
19.76000, 159.
19.90000, 228.
20.04000, 442.
20.18000, 526.
20.32000, 275.
20.46000, 149.
20.60000, 173.
20.74000, 215.
20.88000, 217.
21.02000, 205.
21.16000, 213.
21.30000, 191.
21.44000, 143.
21.58000, 132.
21.72000, 105.
21.86000, 116.
22.00000, 91.
22.14000, 102.
22.28000, 80.
22.42000, 86.
22.56000, 107.
22.70000, 140.
22.84000, 90.
22.98000, 79.
23.12000, 91.
23.26000, 68.
23.40000, 53.
23.54000, 76.
23.68000, 68.
23.82000, 63.
23.96000, 63.
24.10000, 60.
24.24000, 66.
24.38000, 64.
24.52000, 61.
24.66000, 64.
24.80000, 61.
24.94000, 56.
25.08000, 75.
25.22000, 67.
25.36000, 52.
25.50000, 56.
25.64000, 55.
25.78000, 59.
25.92000, 59.
26.06000, 53.
26.20000, 55.
26.34000, 54.
26.48000, 62.
26.62000, 42.
26.76000, 57.
26.90000, 46.
27.04000, 52.
27.18000, 61.
27.32000, 51.
27.46000, 51.
27.60000, 52.
27.74000, 44.
27.88000, 38.
28.02000, 43.
28.16000, 35.
28.30000, 37.
28.44000, 54.
28.58000, 39.
28.72000, 43.
28.86000, 37.
29.00000, 34.
29.14000, 39.
29.28000, 29.
29.42000, 45.
29.56000, 34.
29.70000, 25.
29.84000, 29.
29.98000, 28.
30.12000, 34.
30.26000, 35.
30.40000, 30.
30.54000, 27.
30.68000, 36.
30.82000, 36.
30.96000, 39.
31.10000, 39.
31.24000, 34.
31.38000, 31.
31.52000, 25.
31.66000, 23.
31.80000, 27.
31.94000, 22.
32.08000, 27.
32.22000, 31.
32.36000, 35.
32.50000, 29.
32.64000, 24.
32.78000, 21.
32.92000, 20.
33.06000, 33.
33.20000, 18.
33.34000, 20.
33.48000, 17.
33.62000, 20.
33.76000, 20.
33.90000, 16.
34.04000, 19.
34.18000, 26.
34.32000, 24.
34.46000, 23.
34.60000, 18.
34.74000, 17.
34.88000, 22.
35.02000, 21.
35.16000, 24.
35.30000, 18.
35.44000, 19.
35.58000, 11.
35.72000, 18.
35.86000, 7.
36.00000, 13.
36.14000, 18.
36.28000, 14.
36.42000, 13.
36.56000, 16.
36.70000, 5.
36.84000, 11.
36.98000, 13.
37.12000, 12.
37.26000, 16.
37.40000, 9.
37.54000, 14.
37.68000, 4.
37.82000, 6.
37.96000, 8.
38.10000, 11.
38.24000, 11.
38.38000, 8.
38.52000, 13.
38.66000, 11.
38.80000, 8.
38.94000, 3.
39.08000, 3.
39.22000, 2.
39.36000, 9.
39.50000, 4.
39.64000, 7.
39.78000, 2.
39.92000, 5.
40.06000, 4.
40.20000, 5.
40.34000, 5.
40.48000, 2.
40.55000, 0.
#ENDOFDATA   :

File: Spectrum 29.txt
#FORMAT      : EMSA/MAS Spectral Data File
#VERSION     : 1.0
#TITLE       : Spectrum 29
#DATE        : 21-AUG-2025
#TIME        : 15:33
#OWNER       : XGT7200
#NPOINTS     : 4096.
#NCOLUMNS    : 1.
#XUNITS      : keV
#YUNITS      : counts
#DATATYPE    : XY
#XPERCHAN    : 0.0100000
#OFFSET      : -0.400000
#SIGNALTYPE  : EDS
#CHOFFSET    : 40.0000
#LIVETIME    : 30
#REALTIME    : 39.665
#BEAMKV      : 50.0000
#PROBECUR    : 664000.
#MAGCAM      : 100.000
#XTILTSTGE   : 0.0
#AZIMANGLE   : 0.0
#ELEVANGLE   : 45.0
#XPOSITION mm: 0.0000
#YPOSITION mm: 0.0000
#ZPOSITION mm: 0.0000
##OXINSTPT   : 4
##OXINSTSTROB: 72.08
#SPECTRUM    : Spectral Data Starts Here
-0.40000, 0.
-0.26000, 0.
-0.12000, 0.
0.02000, 0.
0.16000, 0.
0.30000, 0.
0.44000, 35.
0.58000, 47.
0.72000, 41.
0.86000, 48.
1.00000, 39.
1.14000, 32.
1.28000, 87.
1.42000, 179.
1.56000, 257.
1.70000, 3389.
1.84000, 764.
1.98000, 65.
2.12000, 39.
2.26000, 43.
2.40000, 52.
2.54000, 53.
2.68000, 535.
2.82000, 281.
2.96000, 102.
3.10000, 34.
3.24000, 134.
3.38000, 192.
3.52000, 64.
3.66000, 1020.
3.80000, 203.
3.94000, 85.
4.08000, 138.
4.22000, 34.
4.36000, 41.
4.50000, 823.
4.64000, 140.
4.78000, 63.
4.92000, 198.
5.06000, 57.
5.20000, 60.
5.34000, 91.
5.48000, 81.
5.62000, 61.
5.76000, 74.
5.90000, 324.
6.04000, 90.
6.18000, 157.
6.32000, 7208.
6.46000, 10377.
6.60000, 221.
6.74000, 107.
6.88000, 250.
7.02000, 2343.
7.16000, 733.
7.30000, 89.
7.44000, 104.
7.58000, 66.
7.72000, 78.
7.86000, 105.
8.00000, 146.
8.14000, 128.
8.28000, 102.
8.42000, 111.
8.56000, 211.
8.70000, 213.
8.84000, 112.
8.98000, 121.
9.12000, 119.
9.26000, 120.
9.40000, 97.
9.54000, 130.
9.68000, 131.
9.82000, 135.
9.96000, 115.
10.10000, 129.
10.24000, 133.
10.38000, 134.
10.52000, 246.
10.66000, 144.
10.80000, 138.
10.94000, 139.
11.08000, 121.
11.22000, 107.
11.36000, 124.
11.50000, 144.
11.64000, 128.
11.78000, 135.
11.92000, 158.
12.06000, 139.
12.20000, 140.
12.34000, 142.
12.48000, 178.
12.62000, 252.
12.76000, 216.
12.90000, 163.
13.04000, 150.
13.18000, 154.
13.32000, 185.
13.46000, 204.
13.60000, 168.
13.74000, 130.
13.88000, 140.
14.02000, 182.
14.16000, 220.
14.30000, 151.
14.44000, 164.
14.58000, 154.
14.72000, 179.
14.86000, 190.
15.00000, 173.
15.14000, 138.
15.28000, 160.
15.42000, 136.
15.56000, 202.
15.70000, 395.
15.84000, 259.
15.98000, 149.
16.12000, 129.
16.26000, 124.
16.40000, 157.
16.54000, 147.
16.68000, 166.
16.82000, 163.
16.96000, 141.
17.10000, 150.
17.24000, 151.
17.38000, 184.
17.52000, 180.
17.66000, 215.
17.80000, 189.
17.94000, 197.
18.08000, 226.
18.22000, 288.
18.36000, 388.
18.50000, 565.
18.64000, 830.
18.78000, 884.
18.92000, 781.
19.06000, 628.
19.20000, 423.
19.34000, 292.
19.48000, 214.
19.62000, 175.
19.76000, 173.
19.90000, 232.
20.04000, 402.
20.18000, 464.
20.32000, 275.
20.46000, 151.
20.60000, 157.
20.74000, 180.
20.88000, 236.
21.02000, 220.
21.16000, 172.
21.30000, 179.
21.44000, 150.
21.58000, 125.
21.72000, 108.
21.86000, 96.
22.00000, 100.
22.14000, 79.
22.28000, 77.
22.42000, 81.
22.56000, 103.
22.70000, 134.
22.84000, 77.
22.98000, 92.
23.12000, 87.
23.26000, 82.
23.40000, 78.
23.54000, 55.
23.68000, 66.
23.82000, 47.
23.96000, 63.
24.10000, 53.
24.24000, 52.
24.38000, 66.
24.52000, 52.
24.66000, 73.
24.80000, 53.
24.94000, 65.
25.08000, 73.
25.22000, 63.
25.36000, 79.
25.50000, 53.
25.64000, 56.
25.78000, 41.
25.92000, 54.
26.06000, 48.
26.20000, 43.
26.34000, 46.
26.48000, 56.
26.62000, 57.
26.76000, 42.
26.90000, 34.
27.04000, 38.
27.18000, 42.
27.32000, 47.
27.46000, 44.
27.60000, 41.
27.74000, 48.
27.88000, 53.
28.02000, 53.
28.16000, 41.
28.30000, 46.
28.44000, 43.
28.58000, 39.
28.72000, 43.
28.86000, 37.
29.00000, 43.
29.14000, 35.
29.28000, 38.
29.42000, 39.
29.56000, 37.
29.70000, 16.
29.84000, 29.
29.98000, 36.
30.12000, 29.
30.26000, 39.
30.40000, 23.
30.54000, 34.
30.68000, 36.
30.82000, 36.
30.96000, 21.
31.10000, 28.
31.24000, 34.
31.38000, 30.
31.52000, 27.
31.66000, 32.
31.80000, 31.
31.94000, 22.
32.08000, 19.
32.22000, 22.
32.36000, 32.
32.50000, 23.
32.64000, 23.
32.78000, 26.
32.92000, 18.
33.06000, 19.
33.20000, 26.
33.34000, 20.
33.48000, 26.
33.62000, 14.
33.76000, 16.
33.90000, 18.
34.04000, 19.
34.18000, 24.
34.32000, 10.
34.46000, 19.
34.60000, 21.
34.74000, 21.
34.88000, 17.
35.02000, 20.
35.16000, 12.
35.30000, 16.
35.44000, 14.
35.58000, 20.
35.72000, 15.
35.86000, 15.
36.00000, 17.
36.14000, 15.
36.28000, 7.
36.42000, 17.
36.56000, 13.
36.70000, 9.
36.84000, 16.
36.98000, 10.
37.12000, 8.
37.26000, 9.
37.40000, 9.
37.54000, 8.
37.68000, 10.
37.82000, 10.
37.96000, 7.
38.10000, 6.
38.24000, 8.
38.38000, 7.
38.52000, 7.
38.66000, 6.
38.80000, 4.
38.94000, 7.
39.08000, 5.
39.22000, 5.
39.36000, 4.
39.50000, 8.
39.64000, 10.
39.78000, 8.
39.92000, 9.
40.06000, 6.
40.20000, 4.
40.34000, 6.
40.48000, 4.
40.55000, 0.
#ENDOFDATA   :

File: Spectrum 30.txt
#FORMAT      : EMSA/MAS Spectral Data File
#VERSION     : 1.0
#TITLE       : Spectrum 30
#DATE        : 21-AUG-2025
#TIME        : 15:34
#OWNER       : XGT7200
#NPOINTS     : 4096.
#NCOLUMNS    : 1.
#XUNITS      : keV
#YUNITS      : counts
#DATATYPE    : XY
#XPERCHAN    : 0.0100000
#OFFSET      : -0.400000
#SIGNALTYPE  : EDS
#CHOFFSET    : 40.0000
#LIVETIME    : 30
#REALTIME    : 39.8333
#BEAMKV      : 50.0000
#PROBECUR    : 680000.
#MAGCAM      : 100.000
#XTILTSTGE   : 0.0
#AZIMANGLE   : 0.0
#ELEVANGLE   : 45.0
#XPOSITION mm: 0.0000
#YPOSITION mm: 0.0000
#ZPOSITION mm: 0.0000
##OXINSTPT   : 4
##OXINSTSTROB: 71.88
#SPECTRUM    : Spectral Data Starts Here
-0.40000, 0.
-0.26000, 0.
-0.12000, 0.
0.02000, 0.
0.16000, 0.
0.30000, 0.
0.44000, 28.
0.58000, 32.
0.72000, 31.
0.86000, 43.
1.00000, 45.
1.14000, 45.
1.28000, 83.
1.42000, 209.
1.56000, 282.
1.70000, 3548.
1.84000, 777.
1.98000, 73.
2.12000, 28.
2.26000, 50.
2.40000, 55.
2.54000, 51.
2.68000, 456.
2.82000, 279.
2.96000, 80.
3.10000, 31.
3.24000, 137.
3.38000, 227.
3.52000, 60.
3.66000, 1093.
3.80000, 202.
3.94000, 109.
4.08000, 126.
4.22000, 34.
4.36000, 47.
4.50000, 707.
4.64000, 150.
4.78000, 77.
4.92000, 181.
5.06000, 50.
5.20000, 60.
5.34000, 93.
5.48000, 89.
5.62000, 53.
5.76000, 65.
5.90000, 329.
6.04000, 87.
6.18000, 165.
6.32000, 7375.
6.46000, 10449.
6.60000, 201.
6.74000, 109.
6.88000, 236.
7.02000, 2391.
7.16000, 771.
7.30000, 71.
7.44000, 101.
7.58000, 65.
7.72000, 73.
7.86000, 128.
8.00000, 155.
8.14000, 148.
8.28000, 89.
8.42000, 102.
8.56000, 199.
8.70000, 191.
8.84000, 121.
8.98000, 105.
9.12000, 111.
9.26000, 124.
9.40000, 110.
9.54000, 143.
9.68000, 118.
9.82000, 134.
9.96000, 130.
10.10000, 120.
10.24000, 111.
10.38000, 151.
10.52000, 269.
10.66000, 195.
10.80000, 121.
10.94000, 129.
11.08000, 133.
11.22000, 135.
11.36000, 134.
11.50000, 140.
11.64000, 126.
11.78000, 158.
11.92000, 140.
12.06000, 128.
12.20000, 122.
12.34000, 140.
12.48000, 175.
12.62000, 294.
12.76000, 253.
12.90000, 179.
13.04000, 180.
13.18000, 148.
13.32000, 201.
13.46000, 188.
13.60000, 162.
13.74000, 144.
13.88000, 119.
14.02000, 177.
14.16000, 227.
14.30000, 157.
14.44000, 139.
14.58000, 145.
14.72000, 148.
14.86000, 165.
15.00000, 171.
15.14000, 169.
15.28000, 150.
15.42000, 135.
15.56000, 228.
15.70000, 429.
15.84000, 318.
15.98000, 178.
16.12000, 153.
16.26000, 119.
16.40000, 159.
16.54000, 172.
16.68000, 159.
16.82000, 151.
16.96000, 138.
17.10000, 147.
17.24000, 171.
17.38000, 151.
17.52000, 192.
17.66000, 214.
17.80000, 184.
17.94000, 201.
18.08000, 244.
18.22000, 280.
18.36000, 365.
18.50000, 534.
18.64000, 720.
18.78000, 890.
18.92000, 772.
19.06000, 590.
19.20000, 434.
19.34000, 271.
19.48000, 207.
19.62000, 173.
19.76000, 155.
19.90000, 205.
20.04000, 432.
20.18000, 536.
20.32000, 294.
20.46000, 160.
20.60000, 161.
20.74000, 231.
20.88000, 228.
21.02000, 233.
21.16000, 240.
21.30000, 161.
21.44000, 152.
21.58000, 110.
21.72000, 98.
21.86000, 89.
22.00000, 101.
22.14000, 100.
22.28000, 75.
22.42000, 73.
22.56000, 109.
22.70000, 129.
22.84000, 106.
22.98000, 75.
23.12000, 73.
23.26000, 58.
23.40000, 57.
23.54000, 58.
23.68000, 59.
23.82000, 57.
23.96000, 64.
24.10000, 64.
24.24000, 66.
24.38000, 53.
24.52000, 58.
24.66000, 58.
24.80000, 71.
24.94000, 75.
25.08000, 63.
25.22000, 66.
25.36000, 57.
25.50000, 63.
25.64000, 71.
25.78000, 53.
25.92000, 53.
26.06000, 65.
26.20000, 54.
26.34000, 61.
26.48000, 49.
26.62000, 60.
26.76000, 59.
26.90000, 51.
27.04000, 55.
27.18000, 45.
27.32000, 53.
27.46000, 40.
27.60000, 33.
27.74000, 59.
27.88000, 58.
28.02000, 49.
28.16000, 43.
28.30000, 46.
28.44000, 34.
28.58000, 46.
28.72000, 45.
28.86000, 35.
29.00000, 25.
29.14000, 43.
29.28000, 37.
29.42000, 42.
29.56000, 36.
29.70000, 46.
29.84000, 42.
29.98000, 45.
30.12000, 28.
30.26000, 28.
30.40000, 30.
30.54000, 27.
30.68000, 27.
30.82000, 33.
30.96000, 23.
31.10000, 35.
31.24000, 30.
31.38000, 34.
31.52000, 31.
31.66000, 31.
31.80000, 37.
31.94000, 25.
32.08000, 18.
32.22000, 25.
32.36000, 36.
32.50000, 21.
32.64000, 17.
32.78000, 25.
32.92000, 21.
33.06000, 18.
33.20000, 23.
33.34000, 20.
33.48000, 14.
33.62000, 18.
33.76000, 25.
33.90000, 24.
34.04000, 19.
34.18000, 22.
34.32000, 14.
34.46000, 14.
34.60000, 13.
34.74000, 19.
34.88000, 17.
35.02000, 19.
35.16000, 16.
35.30000, 18.
35.44000, 15.
35.58000, 16.
35.72000, 14.
35.86000, 12.
36.00000, 13.
36.14000, 11.
36.28000, 13.
36.42000, 12.
36.56000, 15.
36.70000, 11.
36.84000, 7.
36.98000, 14.
37.12000, 12.
37.26000, 13.
37.40000, 13.
37.54000, 9.
37.68000, 9.
37.82000, 9.
37.96000, 15.
38.10000, 6.
38.24000, 5.
38.38000, 1.
38.52000, 12.
38.66000, 5.
38.80000, 13.
38.94000, 3.
39.08000, 2.
39.22000, 5.
39.36000, 5.
39.50000, 3.
39.64000, 8.
39.78000, 5.
39.92000, 3.
40.06000, 7.
40.20000, 7.
40.34000, 7.
40.48000, 5.
40.55000, 0.
#ENDOFDATA   :