Folder: XRFLab/sample_data/data/Spectrum value from standard/PACS 2 (part 2)

File: Spectrum 18.txt
#FORMAT      : EMSA/MAS Spectral Data File
#VERSION     : 1.0
#TITLE       : Spectrum 18
#DATE        : 21-AUG-2025
#TIME        : 15:22
#OWNER       : XGT7200
#NPOINTS     : 4096.
#NCOLUMNS    : 1.
#XUNITS      : keV
#YUNITS      : counts
#DATATYPE    : XY
#XPERCHAN    : 0.0100000
#OFFSET      : -0.400000
#SIGNALTYPE  : EDS
#CHOFFSET    : 40.0000
#LIVETIME    : 30
#REALTIME    : 39.6368
#BEAMKV      : 50.0000
#PROBECUR    : 701000.
#MAGCAM      : 100.000
#XTILTSTGE   : 0.0
#AZIMANGLE   : 0.0
#ELEVANGLE   : 45.0
#XPOSITION mm: 0.0000
#YPOSITION mm: 0.0000
#ZPOSITION mm: 0.0000
##OXINSTPT   : 4
##OXINSTSTROB: 72.10
#SPECTRUM    : Spectral Data Starts Here
-0.40000, 0.
-0.26000, 0.
-0.12000, 0.
0.02000, 0.
0.16000, 0.
0.30000, 1.
0.44000, 41.
0.58000, 61.
0.72000, 39.
0.86000, 68.
1.00000, 59.
1.14000, 32.
1.28000, 66.
1.42000, 152.
1.56000, 230.
1.70000, 3370.
1.84000, 772.
1.98000, 76.
2.12000, 29.
2.26000, 433.
2.40000, 150.
2.54000, 426.
2.68000, 1254.
2.82000, 405.
2.96000, 92.
3.10000, 28.
3.24000, 172.
3.38000, 264.
3.52000, 75.
3.66000, 1000.
3.80000, 148.
3.94000, 83.
4.08000, 120.
4.22000, 34.
4.36000, 54.
4.50000, 562.
4.64000, 100.
4.78000, 75.
4.92000, 149.
5.06000, 53.
5.20000, 61.
5.34000, 78.
5.48000, 61.
5.62000, 65.
5.76000, 72.
5.90000, 191.
6.04000, 61.
6.18000, 131.
6.32000, 6499.
6.46000, 8966.
6.60000, 171.
6.74000, 74.
6.88000, 197.
7.02000, 2072.
7.16000, 645.
7.30000, 81.
7.44000, 101.
7.58000, 67.
7.72000, 79.
7.86000, 104.
8.00000, 227.
8.14000, 174.
8.28000, 106.
8.42000, 101.
8.56000, 240.
8.70000, 258.
8.84000, 134.
8.98000, 132.
9.12000, 111.
9.26000, 115.
9.40000, 113.
9.54000, 164.
9.68000, 111.
9.82000, 96.
9.96000, 112.
10.10000, 139.
10.24000, 127.
10.38000, 130.
10.52000, 213.
10.66000, 149.
10.80000, 138.
10.94000, 137.
11.08000, 124.
11.22000, 136.
11.36000, 145.
11.50000, 122.
11.64000, 144.
11.78000, 217.
11.92000, 319.
12.06000, 152.
12.20000, 140.
12.34000, 132.
12.48000, 186.
12.62000, 217.
12.76000, 179.
12.90000, 172.
13.04000, 159.
13.18000, 169.
13.32000, 198.
13.46000, 198.
13.60000, 132.
13.74000, 140.
13.88000, 199.
14.02000, 255.
14.16000, 394.
14.30000, 201.
14.44000, 160.
14.58000, 169.
14.72000, 150.
14.86000, 167.
15.00000, 161.
15.14000, 152.
15.28000, 152.
15.42000, 143.
15.56000, 190.
15.70000, 307.
15.84000, 244.
15.98000, 156.
16.12000, 159.
16.26000, 134.
16.40000, 144.
16.54000, 134.
16.68000, 155.
16.82000, 133.
16.96000, 154.
17.10000, 150.
17.24000, 151.
17.38000, 161.
17.52000, 185.
17.66000, 174.
17.80000, 185.
17.94000, 199.
18.08000, 247.
18.22000, 293.
18.36000, 392.
18.50000, 572.
18.64000, 744.
18.78000, 942.
18.92000, 853.
19.06000, 605.
19.20000, 409.
19.34000, 285.
19.48000, 219.
19.62000, 179.
19.76000, 184.
19.90000, 215.
20.04000, 481.
20.18000, 528.
20.32000, 288.
20.46000, 178.
20.60000, 165.
20.74000, 204.
20.88000, 257.
21.02000, 241.
21.16000, 223.
21.30000, 196.
21.44000, 153.
21.58000, 134.
21.72000, 122.
21.86000, 111.
22.00000, 98.
22.14000, 90.
22.28000, 85.
22.42000, 86.
22.56000, 118.
22.70000, 128.
22.84000, 74.
22.98000, 85.
23.12000, 86.
23.26000, 74.
23.40000, 65.
23.54000, 74.
23.68000, 64.
23.82000, 68.
23.96000, 71.
24.10000, 69.
24.24000, 53.
24.38000, 55.
24.52000, 54.
24.66000, 66.
24.80000, 73.
24.94000, 59.
25.08000, 69.
25.22000, 64.
25.36000, 75.
25.50000, 43.
25.64000, 56.
25.78000, 63.
25.92000, 59.
26.06000, 57.
26.20000, 53.
26.34000, 54.
26.48000, 68.
26.62000, 55.
26.76000, 47.
26.90000, 60.
27.04000, 61.
27.18000, 36.
27.32000, 55.
27.46000, 51.
27.60000, 47.
27.74000, 51.
27.88000, 48.
28.02000, 42.
28.16000, 46.
28.30000, 48.
28.44000, 42.
28.58000, 48.
28.72000, 51.
28.86000, 42.
29.00000, 42.
29.14000, 38.
29.28000, 35.
29.42000, 33.
29.56000, 51.
29.70000, 46.
29.84000, 40.
29.98000, 34.
30.12000, 30.
30.26000, 22.
30.40000, 40.
30.54000, 37.
30.68000, 28.
30.82000, 30.
30.96000, 42.
31.10000, 33.
31.24000, 26.
31.38000, 34.
31.52000, 28.
31.66000, 35.
31.80000, 40.
31.94000, 41.
32.08000, 39.
32.22000, 32.
32.36000, 23.
32.50000, 28.
32.64000, 22.
32.78000, 25.
32.92000, 29.
33.06000, 22.
33.20000, 23.
33.34000, 26.
33.48000, 27.
33.62000, 18.
33.76000, 19.
33.90000, 23.
34.04000, 33.
34.18000, 29.
34.32000, 20.
34.46000, 21.
34.60000, 19.
34.74000, 27.
34.88000, 21.
35.02000, 24.
35.16000, 14.
35.30000, 18.
35.44000, 13.
35.58000, 14.
35.72000, 14.
35.86000, 15.
36.00000, 14.
36.14000, 14.
36.28000, 9.
36.42000, 9.
36.56000, 15.
36.70000, 11.
36.84000, 15.
36.98000, 11.
37.12000, 13.
37.26000, 8.
37.40000, 11.
37.54000, 12.
37.68000, 13.
37.82000, 6.
37.96000, 9.
38.10000, 11.
38.24000, 11.
38.38000, 3.
38.52000, 8.
38.66000, 8.
38.80000, 7.
38.94000, 8.
39.08000, 10.
39.22000, 9.
39.36000, 10.
39.50000, 6.
39.64000, 2.
39.78000, 3.
39.92000, 3.
40.06000, 5.
40.20000, 3.
40.34000, 1.
40.48000, 4.
40.55000, 0.
#ENDOFDATA   :