Folder: XRFLab/sample_data/data/Spectrum value from standard/PACS 2

Note: README.md
# FpXrF
fundamental parameters GUI for X-ray fluoresence spectroscopy

File: Spectrum 13, PACS 2.txt
#FORMAT      : EMSA/MAS Spectral Data File
#VERSION     : 1.0
#TITLE       : Spectrum 13
#DATE        : 21-AUG-2025
#TIME        : 15:17
#OWNER       : XGT7200
#NPOINTS     : 4096.
#NCOLUMNS    : 1.
#XUNITS      : keV
#YUNITS      : counts
#DATATYPE    : XY
#XPERCHAN    : 0.0100000
#OFFSET      : -0.400000
#SIGNALTYPE  : EDS
#CHOFFSET    : 40.0000
#LIVETIME    : 30
#REALTIME    : 39.6942
#BEAMKV      : 50.0000
#PROBECUR    : 713000.
#MAGCAM      : 100.000
#XTILTSTGE   : 0.0
#AZIMANGLE   : 0.0
#ELEVANGLE   : 45.0
#XPOSITION mm: 0.0000
#YPOSITION mm: 0.0000
#ZPOSITION mm: 0.0000
##OXINSTPT   : 4
##OXINSTSTROB: 71.96
#SPECTRUM    : Spectral Data Starts Here
-0.40000, 0.
-0.26000, 0.
-0.12000, 0.
0.02000, 0.
0.16000, 0.
0.30000, 0.
0.44000, 53.
0.58000, 63.
0.72000, 41.
0.86000, 49.
1.00000, 50.
1.14000, 54.
1.28000, 77.
1.42000, 175.
1.56000, 253.
1.70000, 3505.
1.84000, 784.
1.98000, 72.
2.12000, 37.
2.26000, 474.
2.40000, 181.
2.54000, 407.
2.68000, 1262.
2.82000, 420.
2.96000, 95.
3.10000, 29.
3.24000, 180.
3.38000, 269.
3.52000, 62.
3.66000, 941.
3.80000, 157.
3.94000, 91.
4.08000, 110.
4.22000, 36.
4.36000, 55.
4.50000, 576.
4.64000, 117.
4.78000, 59.
4.92000, 162.
5.06000, 50.
5.20000, 67.
5.34000, 81.
5.48000, 79.
5.62000, 65.
5.76000, 74.
5.90000, 164.
6.04000, 70.
6.18000, 145.
6.32000, 6048.
6.46000, 8408.
6.60000, 152.
6.74000, 109.
6.88000, 189.
7.02000, 1983.
7.16000, 611.
7.30000, 80.
7.44000, 93.
7.58000, 76.
7.72000, 96.
7.86000, 111.
8.00000, 226.
8.14000, 190.
8.28000, 94.
8.42000, 114.
8.56000, 229.
8.70000, 233.
8.84000, 127.
8.98000, 132.
9.12000, 129.
9.26000, 141.
9.40000, 131.
9.54000, 145.
9.68000, 145.
9.82000, 121.
9.96000, 138.
10.10000, 136.
10.24000, 140.
10.38000, 134.
10.52000, 210.
10.66000, 164.
10.80000, 127.
10.94000, 145.
11.08000, 128.
11.22000, 149.
11.36000, 142.
11.50000, 141.
11.64000, 168.
11.78000, 204.
11.92000, 316.
12.06000, 182.
12.20000, 135.
12.34000, 138.
12.48000, 158.
12.62000, 202.
12.76000, 219.
12.90000, 192.
13.04000, 183.
13.18000, 199.
13.32000, 237.
13.46000, 191.
13.60000, 162.
13.74000, 164.
13.88000, 168.
14.02000, 293.
14.16000, 405.
14.30000, 188.
14.44000, 173.
14.58000, 141.
14.72000, 170.
14.86000, 195.
15.00000, 165.
15.14000, 170.
15.28000, 138.
15.42000, 159.
15.56000, 226.
15.70000, 369.
15.84000, 294.
15.98000, 160.
16.12000, 137.
16.26000, 151.
16.40000, 152.
16.54000, 157.
16.68000, 177.
16.82000, 157.
16.96000, 173.
17.10000, 145.
17.24000, 172.
17.38000, 161.
17.52000, 212.
17.66000, 211.
17.80000, 176.
17.94000, 232.
18.08000, 257.
18.22000, 324.
18.36000, 396.
18.50000, 628.
18.64000, 828.
18.78000, 919.
18.92000, 863.
19.06000, 655.
19.20000, 419.
19.34000, 306.
19.48000, 261.
19.62000, 203.
19.76000, 174.
19.90000, 218.
20.04000, 430.
20.18000, 572.
20.32000, 273.
20.46000, 129.
20.60000, 183.
20.74000, 228.
20.88000, 221.
21.02000, 264.
21.16000, 240.
21.30000, 194.
21.44000, 176.
21.58000, 141.
21.72000, 115.
21.86000, 98.
22.00000, 99.
22.14000, 94.
22.28000, 87.
22.42000, 73.
22.56000, 102.
22.70000, 136.
22.84000, 88.
22.98000, 78.
23.12000, 90.
23.26000, 91.
23.40000, 74.
23.54000, 61.
23.68000, 54.
23.82000, 58.
23.96000, 69.
24.10000, 62.
24.24000, 62.
24.38000, 57.
24.52000, 60.
24.66000, 64.
24.80000, 68.
24.94000, 70.
25.08000, 89.
25.22000, 65.
25.36000, 70.
25.50000, 53.
25.64000, 63.
25.78000, 54.
25.92000, 61.
26.06000, 67.
26.20000, 48.
26.34000, 40.
26.48000, 47.
26.62000, 59.
26.76000, 54.
26.90000, 83.
27.04000, 53.
27.18000, 55.
27.32000, 55.
27.46000, 45.
27.60000, 42.
27.74000, 41.
27.88000, 42.
28.02000, 44.
28.16000, 45.
28.30000, 47.
28.44000, 49.
28.58000, 41.
28.72000, 31.
28.86000, 41.
29.00000, 47.
29.14000, 36.
29.28000, 51.
29.42000, 41.
29.56000, 46.
29.70000, 40.
29.84000, 37.
29.98000, 54.
30.12000, 24.
30.26000, 39.
30.40000, 33.
30.54000, 36.
30.68000, 29.
30.82000, 23.
30.96000, 32.
31.10000, 38.
31.24000, 35.
31.38000, 32.
31.52000, 40.
31.66000, 24.
31.80000, 36.
31.94000, 34.
32.08000, 33.
32.22000, 36.
32.36000, 25.
32.50000, 27.
32.64000, 18.
32.78000, 30.
32.92000, 27.
33.06000, 19.
33.20000, 15.
33.34000, 28.
33.48000, 19.
33.62000, 20.
33.76000, 22.
33.90000, 26.
34.04000, 25.
34.18000, 14.
34.32000, 22.
34.46000, 11.
34.60000, 16.
34.74000, 16.
34.88000, 20.
35.02000, 16.
35.16000, 18.
35.30000, 19.
35.44000, 18.
35.58000, 20.
35.72000, 18.
35.86000, 15.
36.00000, 16.
36.14000, 8.
36.28000, 10.
36.42000, 12.
36.56000, 7.
36.70000, 11.
36.84000, 8.
36.98000, 12.
37.12000, 22.
37.26000, 5.
37.40000, 12.
37.54000, 8.
37.68000, 11.
37.82000, 6.
37.96000, 8.
38.10000, 10.
38.24000, 10.
38.38000, 10.
38.52000, 10.
38.66000, 13.
38.80000, 8.
38.94000, 13.
39.08000, 6.
39.22000, 7.
39.36000, 9.
39.50000, 8.
39.64000, 3.
39.78000, 5.
39.92000, 10.
40.06000, 5.
40.20000, 6.
40.34000, 5.
40.48000, 6.
40.55000, 0.
#ENDOFDATA   :

File: Spectrum 14.txt
#FORMAT      : EMSA/MAS Spectral Data File
#VERSION     : 1.0
#TITLE       : Spectrum 14
#DATE        : 21-AUG-2025
#TIME        : 15:18
#OWNER       : XGT7200
#NPOINTS     : 4096.
#NCOLUMNS    : 1.
#XUNITS      : keV
#YUNITS      : counts
#DATATYPE    : XY
#XPERCHAN    : 0.0100000
#OFFSET      : -0.400000
#SIGNALTYPE  : EDS
#CHOFFSET    : 40.0000
#LIVETIME    : 30
#REALTIME    : 39.5713
#BEAMKV      : 50.0000
#PROBECUR    : 698000.
#MAGCAM      : 100.000
#XTILTSTGE   : 0.0
#AZIMANGLE   : 0.0
#ELEVANGLE   : 45.0
#XPOSITION mm: 0.0000
#YPOSITION mm: 0.0000
#ZPOSITION mm: 0.0000
##OXINSTPT   : 4
##OXINSTSTROB: 72.11
#SPECTRUM    : Spectral Data Starts Here
-0.40000, 0.
-0.26000, 0.
-0.12000, 0.
0.02000, 0.
0.16000, 0.
0.30000, 0.
0.44000, 43.
0.58000, 50.
0.72000, 51.
0.86000, 63.
1.00000, 53.
1.14000, 39.
1.28000, 64.
1.42000, 169.
1.56000, 219.
1.70000, 3298.
1.84000, 786.
1.98000, 76.
2.12000, 30.
2.26000, 454.
2.40000, 175.
2.54000, 378.
2.68000, 1215.
2.82000, 452.
2.96000, 77.
3.10000, 35.
3.24000, 182.
3.38000, 275.
3.52000, 59.
3.66000, 1094.
3.80000, 184.
3.94000, 89.
4.08000, 111.
4.22000, 35.
4.36000, 47.
4.50000, 572.
4.64000, 132.
4.78000, 67.
4.92000, 147.
5.06000, 50.
5.20000, 65.
5.34000, 82.
5.48000, 81.
5.62000, 46.
5.76000, 64.
5.90000, 180.
6.04000, 69.
6.18000, 148.
6.32000, 6225.
6.46000, 8716.
6.60000, 161.
6.74000, 91.
6.88000, 173.
7.02000, 1923.
7.16000, 581.
7.30000, 69.
7.44000, 81.
7.58000, 64.
7.72000, 70.
7.86000, 94.
8.00000, 242.
8.14000, 197.
8.28000, 100.
8.42000, 118.
8.56000, 257.
8.70000, 255.
8.84000, 118.
8.98000, 124.
9.12000, 109.
9.26000, 122.
9.40000, 135.
9.54000, 158.
9.68000, 139.
9.82000, 127.
9.96000, 115.
10.10000, 117.
10.24000, 131.
10.38000, 131.
10.52000, 224.
10.66000, 142.
10.80000, 139.
10.94000, 117.
11.08000, 140.
11.22000, 155.
11.36000, 134.
11.50000, 139.
11.64000, 151.
11.78000, 202.
11.92000, 316.
12.06000, 156.
12.20000, 134.
12.34000, 153.
12.48000, 162.
12.62000, 199.
12.76000, 182.
12.90000, 167.
13.04000, 152.
13.18000, 180.
13.32000, 204.
13.46000, 200.
13.60000, 141.
13.74000, 150.
13.88000, 155.
14.02000, 263.
14.16000, 379.
14.30000, 203.
14.44000, 132.
14.58000, 178.
14.72000, 143.
14.86000, 175.
15.00000, 159.
15.14000, 149.
15.28000, 172.
15.42000, 194.
15.56000, 204.
15.70000, 279.
15.84000, 235.
15.98000, 183.
16.12000, 159.
16.26000, 154.
16.40000, 142.
16.54000, 157.
16.68000, 152.
16.82000, 170.
16.96000, 153.
17.10000, 149.
17.24000, 149.
17.38000, 187.
17.52000, 211.
17.66000, 221.
17.80000, 203.
17.94000, 206.
18.08000, 236.
18.22000, 296.
18.36000, 378.
18.50000, 599.
18.64000, 795.
18.78000, 897.
18.92000, 874.
19.06000, 607.
19.20000, 449.
19.34000, 304.
19.48000, 237.
19.62000, 182.
19.76000, 180.
19.90000, 222.
20.04000, 418.
20.18000, 551.
20.32000, 251.
20.46000, 163.
20.60000, 140.
20.74000, 207.
20.88000, 238.
21.02000, 219.
21.16000, 224.
21.30000, 203.
21.44000, 149.
21.58000, 145.
21.72000, 119.
21.86000, 109.
22.00000, 88.
22.14000, 110.
22.28000, 71.
22.42000, 89.
22.56000, 122.
22.70000, 155.
22.84000, 81.
22.98000, 88.
23.12000, 60.
23.26000, 79.
23.40000, 67.
23.54000, 67.
23.68000, 67.
23.82000, 60.
23.96000, 73.
24.10000, 57.
24.24000, 65.
24.38000, 52.
24.52000, 72.
24.66000, 71.
24.80000, 68.
24.94000, 74.
25.08000, 73.
25.22000, 69.
25.36000, 66.
25.50000, 57.
25.64000, 62.
25.78000, 54.
25.92000, 49.
26.06000, 53.
26.20000, 52.
26.34000, 48.
26.48000, 45.
26.62000, 61.
26.76000, 49.
26.90000, 40.
27.04000, 53.
27.18000, 52.
27.32000, 44.
27.46000, 46.
27.60000, 53.
27.74000, 58.
27.88000, 51.
28.02000, 48.
28.16000, 52.
28.30000, 41.
28.44000, 43.
28.58000, 43.
28.72000, 44.
28.86000, 45.
29.00000, 40.
29.14000, 41.
29.28000, 37.
29.42000, 33.
29.56000, 43.
29.70000, 34.
29.84000, 28.
29.98000, 27.
30.12000, 25.
30.26000, 40.
30.40000, 36.
30.54000, 32.
30.68000, 22.
30.82000, 28.
30.96000, 39.
31.10000, 30.
31.24000, 24.
31.38000, 29.
31.52000, 29.
31.66000, 33.
31.80000, 31.
31.94000, 23.
32.08000, 22.
32.22000, 41.
32.36000, 27.
32.50000, 34.
32.64000, 24.
32.78000, 22.
32.92000, 27.
33.06000, 22.
33.20000, 25.
33.34000, 27.
33.48000, 12.
33.62000, 21.
33.76000, 17.
33.90000, 18.
34.04000, 19.
34.18000, 27.
34.32000, 22.
34.46000, 11.
34.60000, 16.
34.74000, 18.
34.88000, 14.
35.02000, 20.
35.16000, 13.
35.30000, 18.
35.44000, 20.
35.58000, 17.
35.72000, 18.
35.86000, 19.
36.00000, 10.
36.14000, 14.
36.28000, 13.
36.42000, 15.
36.56000, 11.
36.70000, 11.
36.84000, 18.
36.98000, 13.
37.12000, 19.
37.26000, 10.
37.40000, 11.
37.54000, 9.
37.68000, 16.
37.82000, 12.
37.96000, 6.
38.10000, 11.
38.24000, 10.
38.38000, 9.
38.52000, 11.
38.66000, 9.
38.80000, 5.
38.94000, 5.
39.08000, 5.
39.22000, 5.
39.36000, 10.
39.50000, 9.
39.64000, 4.
39.78000, 5.
39.92000, 5.
40.06000, 5.
40.20000, 6.
40.34000, 8.
40.48000, 2.
40.55000, 0.
#ENDOFDATA   :

File: Spectrum 15.txt
#FORMAT      : EMSA/MAS Spectral Data File
#VERSION     : 1.0
#TITLE       : Spectrum 15
#DATE        : 21-AUG-2025
#TIME        : 15:19
#OWNER       : XGT7200
#NPOINTS     : 4096.
#NCOLUMNS    : 1.
#XUNITS      : keV
#YUNITS      : counts
#DATATYPE    : XY
#XPERCHAN    : 0.0100000
#OFFSET      : -0.400000
#SIGNALTYPE  : EDS
#CHOFFSET    : 40.0000
#LIVETIME    : 30
#REALTIME    : 39.5624
#BEAMKV      : 50.0000
#PROBECUR    : 693000.
#MAGCAM      : 100.000
#XTILTSTGE   : 0.0
#AZIMANGLE   : 0.0
#ELEVANGLE   : 45.0
#XPOSITION mm: 0.0000
#YPOSITION mm: 0.0000
#ZPOSITION mm: 0.0000
##OXINSTPT   : 4
##OXINSTSTROB: 72.25
#SPECTRUM    : Spectral Data Starts Here
-0.40000, 0.
-0.26000, 0.
-0.12000, 0.
0.02000, 0.
0.16000, 0.
0.30000, 0.
0.44000, 54.
0.58000, 49.
0.72000, 48.
0.86000, 71.
1.00000, 69.
1.14000, 42.
1.28000, 87.
1.42000, 152.
1.56000, 232.
1.70000, 3349.
1.84000, 769.
1.98000, 74.
2.12000, 33.
2.26000, 476.
2.40000, 173.
2.54000, 382.
2.68000, 1343.
2.82000, 405.
2.96000, 84.
3.10000, 39.
3.24000, 201.
3.38000, 286.
3.52000, 73.
3.66000, 1026.
3.80000, 158.
3.94000, 97.
4.08000, 143.
4.22000, 39.
4.36000, 46.
4.50000, 558.
4.64000, 121.
4.78000, 71.
4.92000, 149.
5.06000, 57.
5.20000, 55.
5.34000, 65.
5.48000, 65.
5.62000, 60.
5.76000, 72.
5.90000, 146.
6.04000, 63.
6.18000, 126.
6.32000, 6141.
6.46000, 8589.
6.60000, 166.
6.74000, 101.
6.88000, 189.
7.02000, 1999.
7.16000, 661.
7.30000, 69.
7.44000, 118.
7.58000, 83.
7.72000, 85.
7.86000, 93.
8.00000, 253.
8.14000, 155.
8.28000, 98.
8.42000, 109.
8.56000, 228.
8.70000, 237.
8.84000, 130.
8.98000, 131.
9.12000, 129.
9.26000, 138.
9.40000, 113.
9.54000, 160.
9.68000, 144.
9.82000, 126.
9.96000, 122.
10.10000, 143.
10.24000, 122.
10.38000, 136.
10.52000, 210.
10.66000, 166.
10.80000, 125.
10.94000, 131.
11.08000, 163.
11.22000, 155.
11.36000, 147.
11.50000, 144.
11.64000, 129.
11.78000, 201.
11.92000, 330.
12.06000, 166.
12.20000, 143.
12.34000, 157.
12.48000, 177.
12.62000, 212.
12.76000, 200.
12.90000, 163.
13.04000, 164.
13.18000, 185.
13.32000, 205.
13.46000, 192.
13.60000, 145.
13.74000, 140.
13.88000, 171.
14.02000, 274.
14.16000, 396.
14.30000, 188.
14.44000, 150.
14.58000, 163.
14.72000, 150.
14.86000, 165.
15.00000, 153.
15.14000, 143.
15.28000, 139.
15.42000, 151.
15.56000, 153.
15.70000, 254.
15.84000, 260.
15.98000, 144.
16.12000, 152.
16.26000, 165.
16.40000, 178.
16.54000, 161.
16.68000, 158.
16.82000, 159.
16.96000, 149.
17.10000, 156.
17.24000, 185.
17.38000, 146.
17.52000, 191.
17.66000, 199.
17.80000, 190.
17.94000, 230.
18.08000, 238.
18.22000, 304.
18.36000, 396.
18.50000, 505.
18.64000, 806.
18.78000, 981.
18.92000, 862.
19.06000, 627.
19.20000, 381.
19.34000, 295.
19.48000, 227.
19.62000, 210.
19.76000, 144.
19.90000, 245.
20.04000, 450.
20.18000, 534.
20.32000, 273.
20.46000, 151.
20.60000, 173.
20.74000, 200.
20.88000, 241.
21.02000, 272.
21.16000, 214.
21.30000, 172.
21.44000, 156.
21.58000, 133.
21.72000, 103.
21.86000, 108.
22.00000, 89.
22.14000, 85.
22.28000, 92.
22.42000, 94.
22.56000, 124.
22.70000, 131.
22.84000, 76.
22.98000, 93.
23.12000, 74.
23.26000, 88.
23.40000, 73.
23.54000, 70.
23.68000, 65.
23.82000, 69.
23.96000, 62.
24.10000, 71.
24.24000, 51.
24.38000, 71.
24.52000, 60.
24.66000, 71.
24.80000, 70.
24.94000, 67.
25.08000, 61.
25.22000, 72.
25.36000, 69.
25.50000, 60.
25.64000, 52.
25.78000, 51.
25.92000, 49.
26.06000, 60.
26.20000, 55.
26.34000, 48.
26.48000, 65.
26.62000, 55.
26.76000, 46.
26.90000, 43.
27.04000, 48.
27.18000, 51.
27.32000, 43.
27.46000, 40.
27.60000, 53.
27.74000, 41.
27.88000, 35.
28.02000, 43.
28.16000, 49.
28.30000, 46.
28.44000, 54.
28.58000, 39.
28.72000, 37.
28.86000, 30.
29.00000, 39.
29.14000, 35.
29.28000, 29.
29.42000, 41.
29.56000, 29.
29.70000, 40.
29.84000, 44.
29.98000, 44.
30.12000, 40.
30.26000, 26.
30.40000, 32.
30.54000, 40.
30.68000, 24.
30.82000, 23.
30.96000, 26.
31.10000, 45.
31.24000, 28.
31.38000, 26.
31.52000, 31.
31.66000, 26.
31.80000, 33.
31.94000, 38.
32.08000, 30.
32.22000, 33.
32.36000, 23.
32.50000, 23.
32.64000, 23.
32.78000, 25.
32.92000, 19.
33.06000, 18.
33.20000, 22.
33.34000, 26.
33.48000, 29.
33.62000, 19.
33.76000, 22.
33.90000, 17.
34.04000, 15.
34.18000, 16.
34.32000, 19.
34.46000, 21.
34.60000, 17.
34.74000, 19.
34.88000, 19.
35.02000, 17.
35.16000, 8.
35.30000, 17.
35.44000, 14.
35.58000, 15.
35.72000, 11.
35.86000, 15.
36.00000, 9.
36.14000, 10.
36.28000, 20.
36.42000, 11.
36.56000, 9.
36.70000, 11.
36.84000, 14.
36.98000, 13.
37.12000, 13.
37.26000, 10.
37.40000, 10.
37.54000, 8.
37.68000, 7.
37.82000, 9.
37.96000, 8.
38.10000, 5.
38.24000, 9.
38.38000, 9.
38.52000, 14.
38.66000, 13.
38.80000, 6.
38.94000, 6.
39.08000, 6.
39.22000, 8.
39.36000, 5.
39.50000, 6.
39.64000, 7.
39.78000, 2.
39.92000, 3.
40.06000, 6.
40.20000, 5.
40.34000, 6.
40.48000, 4.
40.55000, 0.
#ENDOFDATA   :

File: Spectrum 16, PACS 2.txt
#FORMAT      : EMSA/MAS Spectral Data File
#VERSION     : 1.0
#TITLE       : Spectrum 16
#DATE        : 21-AUG-2025
#TIME        : 15:20
#OWNER       : XGT7200
#NPOINTS     : 4096.
#NCOLUMNS    : 1.
#XUNITS      : keV
#YUNITS      : counts
#DATATYPE    : XY
#XPERCHAN    : 0.0100000
#OFFSET      : -0.400000
#SIGNALTYPE  : EDS
#CHOFFSET    : 40.0000
#LIVETIME    : 30
#REALTIME    : 39.6024
#BEAMKV      : 50.0000
#PROBECUR    : 697000.
#MAGCAM      : 100.000
#XTILTSTGE   : 0.0
#AZIMANGLE   : 0.0
#ELEVANGLE   : 45.0
#XPOSITION mm: 0.0000
#YPOSITION mm: 0.0000
#ZPOSITION mm: 0.0000
##OXINSTPT   : 4
##OXINSTSTROB: 72.08
#SPECTRUM    : Spectral Data Starts Here
-0.40000, 0.
-0.26000, 0.
-0.12000, 0.
0.02000, 0.
0.16000, 0.
0.30000, 0.
0.44000, 43.
0.58000, 75.
0.72000, 55.
0.86000, 64.
1.00000, 61.
1.14000, 50.
1.28000, 76.
1.42000, 180.
1.56000, 229.
1.70000, 3461.
1.84000, 779.
1.98000, 64.
2.12000, 36.
2.26000, 459.
2.40000, 166.
2.54000, 359.
2.68000, 1310.
2.82000, 419.
2.96000, 79.
3.10000, 30.
3.24000, 208.
3.38000, 271.
3.52000, 61.
3.66000, 1013.
3.80000, 153.
3.94000, 100.
4.08000, 136.
4.22000, 28.
4.36000, 57.
4.50000, 594.
4.64000, 115.
4.78000, 59.
4.92000, 136.
5.06000, 65.
5.20000, 44.
5.34000, 87.
5.48000, 68.
5.62000, 45.
5.76000, 69.
5.90000, 165.
6.04000, 78.
6.18000, 114.
6.32000, 6041.
6.46000, 8579.
6.60000, 181.
6.74000, 89.
6.88000, 194.
7.02000, 1999.
7.16000, 584.
7.30000, 76.
7.44000, 107.
7.58000, 75.
7.72000, 89.
7.86000, 116.
8.00000, 228.
8.14000, 177.
8.28000, 118.
8.42000, 93.
8.56000, 199.
8.70000, 228.
8.84000, 151.
8.98000, 124.
9.12000, 120.
9.26000, 146.
9.40000, 122.
9.54000, 125.
9.68000, 131.
9.82000, 124.
9.96000, 129.
10.10000, 129.
10.24000, 123.
10.38000, 156.
10.52000, 211.
10.66000, 161.
10.80000, 132.
10.94000, 133.
11.08000, 134.
11.22000, 154.
11.36000, 151.
11.50000, 157.
11.64000, 162.
11.78000, 215.
11.92000, 318.
12.06000, 171.
12.20000, 142.
12.34000, 157.
12.48000, 171.
12.62000, 190.
12.76000, 202.
12.90000, 175.
13.04000, 154.
13.18000, 170.
13.32000, 220.
13.46000, 219.
13.60000, 137.
13.74000, 147.
13.88000, 185.
14.02000, 288.
14.16000, 400.
14.30000, 159.
14.44000, 168.
14.58000, 155.
14.72000, 152.
14.86000, 163.
15.00000, 136.
15.14000, 163.
15.28000, 153.
15.42000, 161.
15.56000, 171.
15.70000, 284.
15.84000, 222.
15.98000, 167.
16.12000, 166.
16.26000, 145.
16.40000, 142.
16.54000, 162.
16.68000, 164.
16.82000, 133.
16.96000, 147.
17.10000, 161.
17.24000, 169.
17.38000, 146.
17.52000, 202.
17.66000, 198.
17.80000, 202.
17.94000, 224.
18.08000, 260.
18.22000, 335.
18.36000, 370.
18.50000, 568.
18.64000, 800.
18.78000, 870.
18.92000, 826.
19.06000, 599.
19.20000, 454.
19.34000, 297.
19.48000, 245.
19.62000, 205.
19.76000, 182.
19.90000, 221.
20.04000, 417.
20.18000, 541.
20.32000, 272.
20.46000, 172.
20.60000, 192.
20.74000, 231.
20.88000, 239.
21.02000, 289.
21.16000, 246.
21.30000, 201.
21.44000, 141.
21.58000, 119.
21.72000, 129.
21.86000, 105.
22.00000, 107.
22.14000, 90.
22.28000, 102.
22.42000, 84.
22.56000, 113.
22.70000, 151.
22.84000, 95.
22.98000, 59.
23.12000, 71.
23.26000, 84.
23.40000, 67.
23.54000, 77.
23.68000, 58.
23.82000, 68.
23.96000, 74.
24.10000, 69.
24.24000, 69.
24.38000, 65.
24.52000, 49.
24.66000, 70.
24.80000, 63.
24.94000, 61.
25.08000, 72.
25.22000, 80.
25.36000, 59.
25.50000, 61.
25.64000, 51.
25.78000, 59.
25.92000, 55.
26.06000, 65.
26.20000, 46.
26.34000, 58.
26.48000, 61.
26.62000, 58.
26.76000, 65.
26.90000, 55.
27.04000, 43.
27.18000, 51.
27.32000, 53.
27.46000, 52.
27.60000, 53.
27.74000, 37.
27.88000, 50.
28.02000, 46.
28.16000, 44.
28.30000, 52.
28.44000, 38.
28.58000, 40.
28.72000, 44.
28.86000, 35.
29.00000, 57.
29.14000, 35.
29.28000, 43.
29.42000, 32.
29.56000, 41.
29.70000, 37.
29.84000, 38.
29.98000, 49.
30.12000, 41.
30.26000, 37.
30.40000, 40.
30.54000, 28.
30.68000, 28.
30.82000, 25.
30.96000, 30.
31.10000, 31.
31.24000, 23.
31.38000, 27.
31.52000, 23.
31.66000, 31.
31.80000, 35.
31.94000, 31.
32.08000, 25.
32.22000, 37.
32.36000, 39.
32.50000, 22.
32.64000, 33.
32.78000, 28.
32.92000, 27.
33.06000, 26.
33.20000, 26.
33.34000, 24.
33.48000, 19.
33.62000, 28.
33.76000, 17.
33.90000, 11.
34.04000, 21.
34.18000, 17.
34.32000, 20.
34.46000, 18.
34.60000, 23.
34.74000, 23.
34.88000, 15.
35.02000, 11.
35.16000, 24.
35.30000, 14.
35.44000, 17.
35.58000, 17.
35.72000, 12.
35.86000, 20.
36.00000, 16.
36.14000, 20.
36.28000, 23.
36.42000, 13.
36.56000, 8.
36.70000, 10.
36.84000, 15.
36.98000, 11.
37.12000, 14.
37.26000, 10.
37.40000, 15.
37.54000, 7.
37.68000, 8.
37.82000, 15.
37.96000, 4.
38.10000, 11.
38.24000, 10.
38.38000, 10.
38.52000, 7.
38.66000, 15.
38.80000, 5.
38.94000, 7.
39.08000, 7.
39.22000, 11.
39.36000, 10.
39.50000, 7.
39.64000, 6.
39.78000, 7.
39.92000, 3.
40.06000, 5.
40.20000, 3.
40.34000, 5.
40.48000, 5.
40.55000, 0.
#ENDOFDATA   :

File: Spectrum 17.txt
#FORMAT      : EMSA/MAS Spectral Data File
#VERSION     : 1.0
#TITLE       : Spectrum 17
#DATE        : 21-AUG-2025
#TIME        : 15:21
#OWNER       : XGT7200
#NPOINTS     : 4096.
#NCOLUMNS    : 1.
#XUNITS      : keV
#YUNITS      : counts
#DATATYPE    : XY
#XPERCHAN    : 0.0100000
#OFFSET      : -0.400000
#SIGNALTYPE  : EDS
#CHOFFSET    : 40.0000
#LIVETIME    : 30
#REALTIME    : 39.562
#BEAMKV      : 50.0000
#PROBECUR    : 703000.
#MAGCAM      : 100.000
#XTILTSTGE   : 0.0
#AZIMANGLE   : 0.0
#ELEVANGLE   : 45.0
#XPOSITION mm: 0.0000
#YPOSITION mm: 0.0000
#ZPOSITION mm: 0.0000
##OXINSTPT   : 4
##OXINSTSTROB: 71.81
#SPECTRUM    : Spectral Data Starts Here
-0.40000, 0.
-0.26000, 0.
-0.12000, 0.
0.02000, 0.
0.16000, 0.
0.30000, 0.
0.44000, 38.
0.58000, 67.
0.72000, 42.
0.86000, 56.
1.00000, 66.
1.14000, 33.
1.28000, 80.
1.42000, 205.
1.56000, 238.
1.70000, 3383.
1.84000, 809.
1.98000, 84.
2.12000, 37.
2.26000, 457.
2.40000, 166.
2.54000, 354.
2.68000, 1243.
2.82000, 368.
2.96000, 83.
3.10000, 24.
3.24000, 173.
3.38000, 297.
3.52000, 67.
3.66000, 1092.
3.80000, 192.
3.94000, 96.
4.08000, 131.
4.22000, 32.
4.36000, 52.
4.50000, 719.
4.64000, 136.
4.78000, 72.
4.92000, 170.
5.06000, 57.
5.20000, 62.
5.34000, 69.
5.48000, 75.
5.62000, 56.
5.76000, 63.
5.90000, 183.
6.04000, 73.
6.18000, 121.
6.32000, 6144.
6.46000, 8751.
6.60000, 178.
6.74000, 118.
6.88000, 184.
7.02000, 1984.
7.16000, 710.
7.30000, 103.
7.44000, 92.
7.58000, 81.
7.72000, 84.
7.86000, 104.
8.00000, 194.
8.14000, 157.
8.28000, 102.
8.42000, 96.
8.56000, 256.
8.70000, 229.
8.84000, 148.
8.98000, 126.
9.12000, 131.
9.26000, 127.
9.40000, 113.
9.54000, 138.
9.68000, 143.
9.82000, 122.
9.96000, 149.
10.10000, 118.
10.24000, 116.
10.38000, 137.
10.52000, 211.
10.66000, 147.
10.80000, 125.
10.94000, 143.
11.08000, 119.
11.22000, 151.
11.36000, 145.
11.50000, 134.
11.64000, 140.
11.78000, 196.
11.92000, 315.
12.06000, 149.
12.20000, 144.
12.34000, 154.
12.48000, 157.
12.62000, 208.
12.76000, 186.
12.90000, 153.
13.04000, 171.
13.18000, 147.
13.32000, 192.
13.46000, 170.
13.60000, 144.
13.74000, 131.
13.88000, 159.
14.02000, 324.
14.16000, 412.
14.30000, 196.
14.44000, 128.
14.58000, 135.
14.72000, 154.
14.86000, 176.
15.00000, 181.
15.14000, 158.
15.28000, 129.
15.42000, 153.
15.56000, 187.
15.70000, 266.
15.84000, 220.
15.98000, 174.
16.12000, 141.
16.26000, 129.
16.40000, 136.
16.54000, 144.
16.68000, 163.
16.82000, 157.
16.96000, 163.
17.10000, 161.
17.24000, 169.
17.38000, 152.
17.52000, 177.
17.66000, 176.
17.80000, 199.
17.94000, 221.
18.08000, 237.
18.22000, 281.
18.36000, 386.
18.50000, 584.
18.64000, 762.
18.78000, 913.
18.92000, 861.
19.06000, 661.
19.20000, 431.
19.34000, 276.
19.48000, 219.
19.62000, 204.
19.76000, 192.
19.90000, 230.
20.04000, 481.
20.18000, 544.
20.32000, 304.
20.46000, 174.
20.60000, 179.
20.74000, 194.
20.88000, 225.
21.02000, 262.
21.16000, 203.
21.30000, 182.
21.44000, 161.
21.58000, 139.
21.72000, 118.
21.86000, 77.
22.00000, 95.
22.14000, 92.
22.28000, 91.
22.42000, 93.
22.56000, 112.
22.70000, 137.
22.84000, 93.
22.98000, 71.
23.12000, 97.
23.26000, 72.
23.40000, 67.
23.54000, 62.
23.68000, 65.
23.82000, 69.
23.96000, 66.
24.10000, 76.
24.24000, 70.
24.38000, 52.
24.52000, 65.
24.66000, 58.
24.80000, 53.
24.94000, 71.
25.08000, 68.
25.22000, 47.
25.36000, 61.
25.50000, 54.
25.64000, 62.
25.78000, 77.
25.92000, 57.
26.06000, 49.
26.20000, 49.
26.34000, 60.
26.48000, 54.
26.62000, 56.
26.76000, 58.
26.90000, 47.
27.04000, 46.
27.18000, 46.
27.32000, 41.
27.46000, 39.
27.60000, 42.
27.74000, 53.
27.88000, 52.
28.02000, 58.
28.16000, 58.
28.30000, 43.
28.44000, 36.
28.58000, 51.
28.72000, 42.
28.86000, 38.
29.00000, 37.
29.14000, 40.
29.28000, 42.
29.42000, 45.
29.56000, 42.
29.70000, 35.
29.84000, 41.
29.98000, 41.
30.12000, 35.
30.26000, 39.
30.40000, 27.
30.54000, 30.
30.68000, 28.
30.82000, 36.
30.96000, 29.
31.10000, 36.
31.24000, 25.
31.38000, 34.
31.52000, 27.
31.66000, 41.
31.80000, 32.
31.94000, 28.
32.08000, 37.
32.22000, 48.
32.36000, 19.
32.50000, 33.
32.64000, 27.
32.78000, 26.
32.92000, 21.
33.06000, 25.
33.20000, 22.
33.34000, 29.
33.48000, 24.
33.62000, 24.
33.76000, 24.
33.90000, 29.
34.04000, 15.
34.18000, 15.
34.32000, 23.
34.46000, 24.
34.60000, 19.
34.74000, 21.
34.88000, 16.
35.02000, 15.
35.16000, 24.
35.30000, 21.
35.44000, 16.
35.58000, 12.
35.72000, 15.
35.86000, 18.
36.00000, 21.
36.14000, 7.
36.28000, 20.
36.42000, 10.
36.56000, 10.
36.70000, 13.
36.84000, 15.
36.98000, 9.
37.12000, 11.
37.26000, 7.
37.40000, 10.
37.54000, 8.
37.68000, 15.
37.82000, 7.
37.96000, 12.
38.10000, 7.
38.24000, 8.
38.38000, 8.
38.52000, 5.
38.66000, 6.
38.80000, 11.
38.94000, 10.
39.08000, 9.
39.22000, 7.
39.36000, 7.
39.50000, 8.
39.64000, 1.
39.78000, 5.
39.92000, 6.
40.06000, 4.
40.20000, 5.
40.34000, 8.
40.48000, 1.
40.55000, 0.
#ENDOFDATA   :