Folder: XRFLab/sample_data/data/Spectrum value from standard/stds 2

Note: README.md
# FpXrF
fundamental parameters GUI for X-ray fluoresence spectroscopy

File: Spectrum 19, STDS 2.txt
#FORMAT      : EMSA/MAS Spectral Data File
#VERSION     : 1.0
#TITLE       : Spectrum 19
#DATE        : 21-AUG-2025
#TIME        : 15:23
#OWNER       : XGT7200
#NPOINTS     : 4096.
#NCOLUMNS    : 1.
#XUNITS      : keV
#YUNITS      : counts
#DATATYPE    : XY
#XPERCHAN    : 0.0100000
#OFFSET      : -0.400000
#SIGNALTYPE  : EDS
#CHOFFSET    : 40.0000
#LIVETIME    : 30
#REALTIME    : 39.4803
#BEAMKV      : 50.0000
#PROBECUR    : 680000.
#MAGCAM      : 100.000
#XTILTSTGE   : 0.0
#AZIMANGLE   : 0.0
#ELEVANGLE   : 45.0
#XPOSITION mm: 0.0000
#YPOSITION mm: 0.0000
#ZPOSITION mm: 0.0000
##OXINSTPT   : 4
##OXINSTSTROB: 72.12
#SPECTRUM    : Spectral Data Starts Here
-0.40000, 0.
-0.26000, 0.
-0.12000, 0.
0.02000, 0.
0.16000, 0.
0.30000, 0.
0.44000, 41.
0.58000, 36.
0.72000, 33.
0.86000, 43.
1.00000, 62.
1.14000, 33.
1.28000, 105.
1.42000, 223.
1.56000, 296.
1.70000, 3068.
1.84000, 748.
1.98000, 98.
2.12000, 31.
2.26000, 54.
2.40000, 43.
2.54000, 38.
2.68000, 445.
2.82000, 267.
2.96000, 78.
3.10000, 38.
3.24000, 230.
3.38000, 395.
3.52000, 96.
3.66000, 1790.
3.80000, 275.
3.94000, 139.
4.08000, 168.
4.22000, 24.
4.36000, 52.
4.50000, 521.
4.64000, 126.
4.78000, 69.
4.92000, 157.
5.06000, 69.
5.20000, 53.
5.34000, 79.
5.48000, 63.
5.62000, 52.
5.76000, 65.
5.90000, 350.
6.04000, 93.
6.18000, 125.
6.32000, 7226.
6.46000, 10527.
6.60000, 164.
6.74000, 122.
6.88000, 215.
7.02000, 2347.
7.16000, 714.
7.30000, 76.
7.44000, 87.
7.58000, 69.
7.72000, 73.
7.86000, 84.
8.00000, 114.
8.14000, 130.
8.28000, 95.
8.42000, 88.
8.56000, 173.
8.70000, 179.
8.84000, 113.
8.98000, 95.
9.12000, 113.
9.26000, 105.
9.40000, 101.
9.54000, 138.
9.68000, 118.
9.82000, 105.
9.96000, 96.
10.10000, 128.
10.24000, 115.
10.38000, 139.
10.52000, 164.
10.66000, 112.
10.80000, 118.
10.94000, 123.
11.08000, 120.
11.22000, 126.
11.36000, 122.
11.50000, 122.
11.64000, 127.
11.78000, 115.
11.92000, 133.
12.06000, 104.
12.20000, 144.
12.34000, 116.
12.48000, 131.
12.62000, 149.
12.76000, 180.
12.90000, 152.
13.04000, 151.
13.18000, 153.
13.32000, 222.
13.46000, 217.
13.60000, 176.
13.74000, 130.
13.88000, 167.
14.02000, 328.
14.16000, 524.
14.30000, 206.
14.44000, 129.
14.58000, 111.
14.72000, 140.
14.86000, 174.
15.00000, 163.
15.14000, 129.
15.28000, 132.
15.42000, 129.
15.56000, 180.
15.70000, 337.
15.84000, 289.
15.98000, 164.
16.12000, 129.
16.26000, 135.
16.40000, 128.
16.54000, 179.
16.68000, 156.
16.82000, 145.
16.96000, 149.
17.10000, 143.
17.24000, 154.
17.38000, 159.
17.52000, 183.
17.66000, 207.
17.80000, 155.
17.94000, 186.
18.08000, 225.
18.22000, 253.
18.36000, 355.
18.50000, 481.
18.64000, 699.
18.78000, 820.
18.92000, 699.
19.06000, 583.
19.20000, 366.
19.34000, 252.
19.48000, 209.
19.62000, 173.
19.76000, 160.
19.90000, 208.
20.04000, 421.
20.18000, 513.
20.32000, 246.
20.46000, 139.
20.60000, 163.
20.74000, 194.
20.88000, 221.
21.02000, 232.
21.16000, 185.
21.30000, 161.
21.44000, 147.
21.58000, 132.
21.72000, 98.
21.86000, 70.
22.00000, 97.
22.14000, 87.
22.28000, 77.
22.42000, 73.
22.56000, 107.
22.70000, 136.
22.84000, 88.
22.98000, 86.
23.12000, 90.
23.26000, 53.
23.40000, 54.
23.54000, 59.
23.68000, 59.
23.82000, 60.
23.96000, 53.
24.10000, 67.
24.24000, 59.
24.38000, 51.
24.52000, 71.
24.66000, 55.
24.80000, 46.
24.94000, 65.
25.08000, 64.
25.22000, 63.
25.36000, 59.
25.50000, 54.
25.64000, 45.
25.78000, 62.
25.92000, 53.
26.06000, 63.
26.20000, 42.
26.34000, 54.
26.48000, 47.
26.62000, 41.
26.76000, 44.
26.90000, 62.
27.04000, 45.
27.18000, 45.
27.32000, 63.
27.46000, 40.
27.60000, 46.
27.74000, 39.
27.88000, 33.
28.02000, 42.
28.16000, 43.
28.30000, 36.
28.44000, 36.
28.58000, 45.
28.72000, 37.
28.86000, 35.
29.00000, 50.
29.14000, 28.
29.28000, 44.
29.42000, 38.
29.56000, 31.
29.70000, 33.
29.84000, 29.
29.98000, 33.
30.12000, 25.
30.26000, 29.
30.40000, 37.
30.54000, 29.
30.68000, 34.
30.82000, 39.
30.96000, 30.
31.10000, 27.
31.24000, 33.
31.38000, 23.
31.52000, 23.
31.66000, 18.
31.80000, 31.
31.94000, 21.
32.08000, 22.
32.22000, 36.
32.36000, 16.
32.50000, 23.
32.64000, 20.
32.78000, 20.
32.92000, 25.
33.06000, 16.
33.20000, 25.
33.34000, 17.
33.48000, 24.
33.62000, 15.
33.76000, 17.
33.90000, 24.
34.04000, 12.
34.18000, 14.
34.32000, 18.
34.46000, 25.
34.60000, 18.
34.74000, 19.
34.88000, 18.
35.02000, 25.
35.16000, 13.
35.30000, 12.
35.44000, 14.
35.58000, 18.
35.72000, 14.
35.86000, 13.
36.00000, 13.
36.14000, 14.
36.28000, 16.
36.42000, 17.
36.56000, 4.
36.70000, 12.
36.84000, 10.
36.98000, 11.
37.12000, 10.
37.26000, 12.
37.40000, 7.
37.54000, 8.
37.68000, 8.
37.82000, 10.
37.96000, 8.
38.10000, 9.
38.24000, 7.
38.38000, 8.
38.52000, 8.
38.66000, 8.
38.80000, 10.
38.94000, 3.
39.08000, 7.
39.22000, 6.
39.36000, 7.
39.50000, 4.
39.64000, 7.
39.78000, 4.
39.92000, 2.
40.06000, 4.
40.20000, 3.
40.34000, 3.
40.48000, 7.
40.55000, 0.
#ENDOFDATA   :

File: Spectrum 21.txt
#FORMAT      : EMSA/MAS Spectral Data File
#VERSION     : 1.0
#TITLE       : Spectrum 21
#DATE        : 21-AUG-2025
#TIME        : 15:25
#OWNER       : XGT7200
#NPOINTS     : 4096.
#NCOLUMNS    : 1.
#XUNITS      : keV
#YUNITS      : counts
#DATATYPE    : XY
#XPERCHAN    : 0.0100000
#OFFSET      : -0.400000
#SIGNALTYPE  : EDS
#CHOFFSET    : 40.0000
#LIVETIME    : 30
#REALTIME    : 39.6462
#BEAMKV      : 50.0000
#PROBECUR    : 689000.
#MAGCAM      : 100.000
#XTILTSTGE   : 0.0
#AZIMANGLE   : 0.0
#ELEVANGLE   : 45.0
#XPOSITION mm: 0.0000
#YPOSITION mm: 0.0000
#ZPOSITION mm: 0.0000
##OXINSTPT   : 4
##OXINSTSTROB: 72.04
#SPECTRUM    : Spectral Data Starts Here
-0.40000, 0.
-0.26000, 0.
-0.12000, 0.
0.02000, 0.
0.16000, 0.
0.30000, 0.
0.44000, 46.
0.58000, 40.
0.72000, 35.
0.86000, 36.
1.00000, 46.
1.14000, 28.
1.28000, 94.
1.42000, 217.
1.56000, 299.
1.70000, 3095.
1.84000, 682.
1.98000, 84.
2.12000, 32.
2.26000, 67.
2.40000, 44.
2.54000, 41.
2.68000, 438.
2.82000, 229.
2.96000, 79.
3.10000, 32.
3.24000, 234.
3.38000, 373.
3.52000, 86.
3.66000, 1541.
3.80000, 218.
3.94000, 108.
4.08000, 171.
4.22000, 36.
4.36000, 41.
4.50000, 557.
4.64000, 121.
4.78000, 67.
4.92000, 156.
5.06000, 63.
5.20000, 67.
5.34000, 72.
5.48000, 64.
5.62000, 49.
5.76000, 71.
5.90000, 337.
6.04000, 83.
6.18000, 164.
6.32000, 7766.
6.46000, 10763.
6.60000, 212.
6.74000, 101.
6.88000, 204.
7.02000, 2494.
7.16000, 759.
7.30000, 69.
7.44000, 77.
7.58000, 76.
7.72000, 82.
7.86000, 72.
8.00000, 120.
8.14000, 136.
8.28000, 104.
8.42000, 104.
8.56000, 207.
8.70000, 180.
8.84000, 104.
8.98000, 99.
9.12000, 106.
9.26000, 116.
9.40000, 89.
9.54000, 115.
9.68000, 124.
9.82000, 127.
9.96000, 125.
10.10000, 122.
10.24000, 113.
10.38000, 127.
10.52000, 173.
10.66000, 128.
10.80000, 135.
10.94000, 119.
11.08000, 118.
11.22000, 121.
11.36000, 121.
11.50000, 126.
11.64000, 138.
11.78000, 145.
11.92000, 145.
12.06000, 121.
12.20000, 136.
12.34000, 120.
12.48000, 127.
12.62000, 170.
12.76000, 168.
12.90000, 152.
13.04000, 120.
13.18000, 151.
13.32000, 228.
13.46000, 206.
13.60000, 160.
13.74000, 135.
13.88000, 165.
14.02000, 335.
14.16000, 526.
14.30000, 211.
14.44000, 133.
14.58000, 135.
14.72000, 144.
14.86000, 173.
15.00000, 179.
15.14000, 133.
15.28000, 144.
15.42000, 147.
15.56000, 171.
15.70000, 278.
15.84000, 253.
15.98000, 135.
16.12000, 140.
16.26000, 133.
16.40000, 120.
16.54000, 144.
16.68000, 142.
16.82000, 165.
16.96000, 123.
17.10000, 124.
17.24000, 149.
17.38000, 163.
17.52000, 173.
17.66000, 188.
17.80000, 191.
17.94000, 215.
18.08000, 194.
18.22000, 238.
18.36000, 360.
18.50000, 540.
18.64000, 728.
18.78000, 802.
18.92000, 718.
19.06000, 544.
19.20000, 360.
19.34000, 255.
19.48000, 205.
19.62000, 173.
19.76000, 146.
19.90000, 217.
20.04000, 436.
20.18000, 540.
20.32000, 276.
20.46000, 162.
20.60000, 162.
20.74000, 185.
20.88000, 196.
21.02000, 223.
21.16000, 213.
21.30000, 158.
21.44000, 128.
21.58000, 113.
21.72000, 116.
21.86000, 94.
22.00000, 83.
22.14000, 79.
22.28000, 65.
22.42000, 71.
22.56000, 113.
22.70000, 126.
22.84000, 103.
22.98000, 65.
23.12000, 65.
23.26000, 62.
23.40000, 65.
23.54000, 58.
23.68000, 68.
23.82000, 59.
23.96000, 55.
24.10000, 54.
24.24000, 68.
24.38000, 57.
24.52000, 60.
24.66000, 60.
24.80000, 52.
24.94000, 61.
25.08000, 66.
25.22000, 65.
25.36000, 65.
25.50000, 47.
25.64000, 63.
25.78000, 59.
25.92000, 44.
26.06000, 49.
26.20000, 44.
26.34000, 63.
26.48000, 57.
26.62000, 52.
26.76000, 39.
26.90000, 42.
27.04000, 44.
27.18000, 49.
27.32000, 40.
27.46000, 41.
27.60000, 49.
27.74000, 41.
27.88000, 42.
28.02000, 31.
28.16000, 50.
28.30000, 45.
28.44000, 46.
28.58000, 33.
28.72000, 39.
28.86000, 41.
29.00000, 37.
29.14000, 32.
29.28000, 30.
29.42000, 29.
29.56000, 38.
29.70000, 40.
29.84000, 26.
29.98000, 34.
30.12000, 38.
30.26000, 26.
30.40000, 29.
30.54000, 24.
30.68000, 32.
30.82000, 30.
30.96000, 30.
31.10000, 26.
31.24000, 30.
31.38000, 34.
31.52000, 35.
31.66000, 26.
31.80000, 34.
31.94000, 32.
32.08000, 24.
32.22000, 21.
32.36000, 21.
32.50000, 26.
32.64000, 22.
32.78000, 28.
32.92000, 29.
33.06000, 17.
33.20000, 20.
33.34000, 15.
33.48000, 15.
33.62000, 18.
33.76000, 22.
33.90000, 11.
34.04000, 19.
34.18000, 17.
34.32000, 18.
34.46000, 19.
34.60000, 16.
34.74000, 13.
34.88000, 18.
35.02000, 15.
35.16000, 22.
35.30000, 10.
35.44000, 16.
35.58000, 10.
35.72000, 14.
35.86000, 12.
36.00000, 15.
36.14000, 15.
36.28000, 15.
36.42000, 17.
36.56000, 15.
36.70000, 12.
36.84000, 10.
36.98000, 11.
37.12000, 8.
37.26000, 13.
37.40000, 8.
37.54000, 10.
37.68000, 9.
37.82000, 9.
37.96000, 9.
38.10000, 6.
38.24000, 9.
38.38000, 10.
38.52000, 9.
38.66000, 9.
38.80000, 7.
38.94000, 8.
39.08000, 9.
39.22000, 6.
39.36000, 12.
39.50000, 8.
39.64000, 4.
39.78000, 5.
39.92000, 4.
40.06000, 1.
40.20000, 4.
40.34000, 6.
40.48000, 8.
40.55000, 0.
#ENDOFDATA   :

File: Spectrum 22.txt
#FORMAT      : EMSA/MAS Spectral Data File
#VERSION     : 1.0
#TITLE       : Spectrum 22
#DATE        : 21-AUG-2025
#TIME        : 15:26
#OWNER       : XGT7200
#NPOINTS     : 4096.
#NCOLUMNS    : 1.
#XUNITS      : keV
#YUNITS      : counts
#DATATYPE    : XY
#XPERCHAN    : 0.0100000
#OFFSET      : -0.400000
#SIGNALTYPE  : EDS
#CHOFFSET    : 40.0000
#LIVETIME    : 30
#REALTIME    : 39.7843
#BEAMKV      : 50.0000
#PROBECUR    : 692000.
#MAGCAM      : 100.000
#XTILTSTGE   : 0.0
#AZIMANGLE   : 0.0
#ELEVANGLE   : 45.0
#XPOSITION mm: 0.0000
#YPOSITION mm: 0.0000
#ZPOSITION mm: 0.0000
##OXINSTPT   : 4
##OXINSTSTROB: 71.84
#SPECTRUM    : Spectral Data Starts Here
-0.40000, 0.
-0.26000, 0.
-0.12000, 0.
0.02000, 0.
0.16000, 0.
0.30000, 0.
0.44000, 37.
0.58000, 47.
0.72000, 42.
0.86000, 40.
1.00000, 39.
1.14000, 39.
1.28000, 90.
1.42000, 235.
1.56000, 280.
1.70000, 3132.
1.84000, 673.
1.98000, 83.
2.12000, 29.
2.26000, 45.
2.40000, 41.
2.54000, 33.
2.68000, 456.
2.82000, 228.
2.96000, 85.
3.10000, 30.
3.24000, 241.
3.38000, 416.
3.52000, 97.
3.66000, 1418.
3.80000, 218.
3.94000, 113.
4.08000, 162.
4.22000, 30.
4.36000, 41.
4.50000, 601.
4.64000, 124.
4.78000, 56.
4.92000, 136.
5.06000, 61.
5.20000, 65.
5.34000, 77.
5.48000, 76.
5.62000, 54.
5.76000, 78.
5.90000, 309.
6.04000, 89.
6.18000, 133.
6.32000, 7530.
6.46000, 10749.
6.60000, 206.
6.74000, 116.
6.88000, 240.
7.02000, 2418.
7.16000, 787.
7.30000, 57.
7.44000, 95.
7.58000, 80.
7.72000, 82.
7.86000, 80.
8.00000, 128.
8.14000, 138.
8.28000, 98.
8.42000, 102.
8.56000, 147.
8.70000, 189.
8.84000, 111.
8.98000, 97.
9.12000, 111.
9.26000, 142.
9.40000, 99.
9.54000, 137.
9.68000, 124.
9.82000, 101.
9.96000, 90.
10.10000, 113.
10.24000, 114.
10.38000, 157.
10.52000, 191.
10.66000, 152.
10.80000, 132.
10.94000, 163.
11.08000, 127.
11.22000, 141.
11.36000, 144.
11.50000, 114.
11.64000, 143.
11.78000, 150.
11.92000, 117.
12.06000, 143.
12.20000, 140.
12.34000, 132.
12.48000, 135.
12.62000, 170.
12.76000, 174.
12.90000, 160.
13.04000, 154.
13.18000, 162.
13.32000, 259.
13.46000, 203.
13.60000, 158.
13.74000, 135.
13.88000, 164.
14.02000, 338.
14.16000, 531.
14.30000, 209.
14.44000, 142.
14.58000, 159.
14.72000, 148.
14.86000, 193.
15.00000, 198.
15.14000, 156.
15.28000, 163.
15.42000, 124.
15.56000, 189.
15.70000, 398.
15.84000, 339.
15.98000, 153.
16.12000, 127.
16.26000, 130.
16.40000, 154.
16.54000, 164.
16.68000, 177.
16.82000, 127.
16.96000, 152.
17.10000, 133.
17.24000, 158.
17.38000, 157.
17.52000, 163.
17.66000, 207.
17.80000, 180.
17.94000, 214.
18.08000, 245.
18.22000, 287.
18.36000, 342.
18.50000, 540.
18.64000, 736.
18.78000, 857.
18.92000, 782.
19.06000, 591.
19.20000, 377.
19.34000, 262.
19.48000, 220.
19.62000, 184.
19.76000, 161.
19.90000, 208.
20.04000, 453.
20.18000, 500.
20.32000, 243.
20.46000, 132.
20.60000, 180.
20.74000, 188.
20.88000, 226.
21.02000, 239.
21.16000, 222.
21.30000, 177.
21.44000, 144.
21.58000, 133.
21.72000, 106.
21.86000, 92.
22.00000, 93.
22.14000, 77.
22.28000, 88.
22.42000, 97.
22.56000, 98.
22.70000, 146.
22.84000, 67.
22.98000, 80.
23.12000, 72.
23.26000, 67.
23.40000, 63.
23.54000, 60.
23.68000, 53.
23.82000, 58.
23.96000, 52.
24.10000, 52.
24.24000, 59.
24.38000, 57.
24.52000, 74.
24.66000, 55.
24.80000, 53.
24.94000, 62.
25.08000, 61.
25.22000, 76.
25.36000, 59.
25.50000, 67.
25.64000, 55.
25.78000, 61.
25.92000, 59.
26.06000, 59.
26.20000, 52.
26.34000, 63.
26.48000, 41.
26.62000, 44.
26.76000, 50.
26.90000, 53.
27.04000, 44.
27.18000, 39.
27.32000, 59.
27.46000, 54.
27.60000, 31.
27.74000, 39.
27.88000, 21.
28.02000, 52.
28.16000, 46.
28.30000, 36.
28.44000, 37.
28.58000, 47.
28.72000, 40.
28.86000, 41.
29.00000, 28.
29.14000, 48.
29.28000, 37.
29.42000, 34.
29.56000, 34.
29.70000, 27.
29.84000, 26.
29.98000, 22.
30.12000, 37.
30.26000, 25.
30.40000, 32.
30.54000, 34.
30.68000, 32.
30.82000, 34.
30.96000, 32.
31.10000, 24.
31.24000, 30.
31.38000, 25.
31.52000, 25.
31.66000, 36.
31.80000, 40.
31.94000, 28.
32.08000, 32.
32.22000, 26.
32.36000, 25.
32.50000, 27.
32.64000, 27.
32.78000, 30.
32.92000, 28.
33.06000, 17.
33.20000, 25.
33.34000, 19.
33.48000, 15.
33.62000, 22.
33.76000, 18.
33.90000, 17.
34.04000, 23.
34.18000, 21.
34.32000, 18.
34.46000, 20.
34.60000, 16.
34.74000, 17.
34.88000, 14.
35.02000, 21.
35.16000, 16.
35.30000, 15.
35.44000, 13.
35.58000, 11.
35.72000, 15.
35.86000, 13.
36.00000, 17.
36.14000, 11.
36.28000, 14.
36.42000, 20.
36.56000, 13.
36.70000, 16.
36.84000, 8.
36.98000, 11.
37.12000, 12.
37.26000, 11.
37.40000, 10.
37.54000, 4.
37.68000, 8.
37.82000, 10.
37.96000, 3.
38.10000, 11.
38.24000, 7.
38.38000, 7.
38.52000, 8.
38.66000, 3.
38.80000, 5.
38.94000, 11.
39.08000, 5.
39.22000, 9.
39.36000, 2.
39.50000, 10.
39.64000, 11.
39.78000, 5.
39.92000, 4.
40.06000, 5.
40.20000, 6.
40.34000, 7.
40.48000, 3.
40.55000, 0.
#ENDOFDATA   :

File: Spectrum 23.txt
#FORMAT      : EMSA/MAS Spectral Data File
#VERSION     : 1.0
#TITLE       : Spectrum 23
#DATE        : 21-AUG-2025
#TIME        : 15:27
#OWNER       : XGT7200
#NPOINTS     : 4096.
#NCOLUMNS    : 1.
#XUNITS      : keV
#YUNITS      : counts
#DATATYPE    : XY
#XPERCHAN    : 0.0100000
#OFFSET      : -0.400000
#SIGNALTYPE  : EDS
#CHOFFSET    : 40.0000
#LIVETIME    : 30
#REALTIME    : 39.572
#BEAMKV      : 50.0000
#PROBECUR    : 682000.
#MAGCAM      : 100.000
#XTILTSTGE   : 0.0
#AZIMANGLE   : 0.0
#ELEVANGLE   : 45.0
#XPOSITION mm: 0.0000
#YPOSITION mm: 0.0000
#ZPOSITION mm: 0.0000
##OXINSTPT   : 4
##OXINSTSTROB: 71.95
#SPECTRUM    : Spectral Data Starts Here
-0.40000, 0.
-0.26000, 0.
-0.12000, 0.
0.02000, 0.
0.16000, 0.
0.30000, 1.
0.44000, 47.
0.58000, 29.
0.72000, 45.
0.86000, 31.
1.00000, 49.
1.14000, 36.
1.28000, 93.
1.42000, 228.
1.56000, 286.
1.70000, 2964.
1.84000, 687.
1.98000, 99.
2.12000, 41.
2.26000, 36.
2.40000, 43.
2.54000, 58.
2.68000, 439.
2.82000, 220.
2.96000, 83.
3.10000, 37.
3.24000, 263.
3.38000, 356.
3.52000, 69.
3.66000, 1456.
3.80000, 225.
3.94000, 131.
4.08000, 171.
4.22000, 23.
4.36000, 48.
4.50000, 583.
4.64000, 144.
4.78000, 59.
4.92000, 137.
5.06000, 59.
5.20000, 54.
5.34000, 59.
5.48000, 69.
5.62000, 56.
5.76000, 84.
5.90000, 375.
6.04000, 80.
6.18000, 152.
6.32000, 7584.
6.46000, 10648.
6.60000, 176.
6.74000, 127.
6.88000, 223.
7.02000, 2413.
7.16000, 782.
7.30000, 62.
7.44000, 83.
7.58000, 89.
7.72000, 72.
7.86000, 94.
8.00000, 124.
8.14000, 134.
8.28000, 107.
8.42000, 96.
8.56000, 188.
8.70000, 174.
8.84000, 113.
8.98000, 99.
9.12000, 104.
9.26000, 124.
9.40000, 101.
9.54000, 130.
9.68000, 116.
9.82000, 116.
9.96000, 125.
10.10000, 116.
10.24000, 101.
10.38000, 121.
10.52000, 168.
10.66000, 159.
10.80000, 133.
10.94000, 129.
11.08000, 118.
11.22000, 107.
11.36000, 116.
11.50000, 119.
11.64000, 140.
11.78000, 126.
11.92000, 142.
12.06000, 135.
12.20000, 110.
12.34000, 157.
12.48000, 140.
12.62000, 133.
12.76000, 199.
12.90000, 173.
13.04000, 130.
13.18000, 143.
13.32000, 223.
13.46000, 197.
13.60000, 162.
13.74000, 149.
13.88000, 160.
14.02000, 367.
14.16000, 469.
14.30000, 196.
14.44000, 125.
14.58000, 129.
14.72000, 152.
14.86000, 171.
15.00000, 151.
15.14000, 127.
15.28000, 148.
15.42000, 119.
15.56000, 168.
15.70000, 353.
15.84000, 301.
15.98000, 178.
16.12000, 150.
16.26000, 128.
16.40000, 121.
16.54000, 164.
16.68000, 138.
16.82000, 149.
16.96000, 143.
17.10000, 129.
17.24000, 166.
17.38000, 163.
17.52000, 179.
17.66000, 169.
17.80000, 178.
17.94000, 207.
18.08000, 212.
18.22000, 288.
18.36000, 355.
18.50000, 495.
18.64000, 719.
18.78000, 802.
18.92000, 749.
19.06000, 564.
19.20000, 379.
19.34000, 232.
19.48000, 219.
19.62000, 177.
19.76000, 143.
19.90000, 209.
20.04000, 435.
20.18000, 489.
20.32000, 278.
20.46000, 158.
20.60000, 156.
20.74000, 194.
20.88000, 193.
21.02000, 229.
21.16000, 179.
21.30000, 160.
21.44000, 149.
21.58000, 102.
21.72000, 107.
21.86000, 96.
22.00000, 98.
22.14000, 83.
22.28000, 69.
22.42000, 72.
22.56000, 110.
22.70000, 124.
22.84000, 80.
22.98000, 62.
23.12000, 72.
23.26000, 77.
23.40000, 54.
23.54000, 59.
23.68000, 64.
23.82000, 74.
23.96000, 56.
24.10000, 55.
24.24000, 67.
24.38000, 61.
24.52000, 69.
24.66000, 64.
24.80000, 55.
24.94000, 60.
25.08000, 84.
25.22000, 71.
25.36000, 64.
25.50000, 58.
25.64000, 58.
25.78000, 62.
25.92000, 54.
26.06000, 56.
26.20000, 51.
26.34000, 53.
26.48000, 46.
26.62000, 45.
26.76000, 41.
26.90000, 63.
27.04000, 41.
27.18000, 48.
27.32000, 58.
27.46000, 43.
27.60000, 44.
27.74000, 33.
27.88000, 48.
28.02000, 41.
28.16000, 34.
28.30000, 35.
28.44000, 36.
28.58000, 43.
28.72000, 35.
28.86000, 40.
29.00000, 35.
29.14000, 43.
29.28000, 37.
29.42000, 26.
29.56000, 35.
29.70000, 35.
29.84000, 34.
29.98000, 24.
30.12000, 36.
30.26000, 32.
30.40000, 37.
30.54000, 33.
30.68000, 35.
30.82000, 33.
30.96000, 27.
31.10000, 30.
31.24000, 28.
31.38000, 34.
31.52000, 43.
31.66000, 33.
31.80000, 29.
31.94000, 31.
32.08000, 27.
32.22000, 37.
32.36000, 27.
32.50000, 20.
32.64000, 25.
32.78000, 18.
32.92000, 19.
33.06000, 19.
33.20000, 21.
33.34000, 20.
33.48000, 18.
33.62000, 23.
33.76000, 19.
33.90000, 20.
34.04000, 14.
34.18000, 17.
34.32000, 17.
34.46000, 16.
34.60000, 23.
34.74000, 12.
34.88000, 15.
35.02000, 19.
35.16000, 14.
35.30000, 15.
35.44000, 16.
35.58000, 18.
35.72000, 15.
35.86000, 9.
36.00000, 13.
36.14000, 4.
36.28000, 15.
36.42000, 17.
36.56000, 10.
36.70000, 12.
36.84000, 10.
36.98000, 12.
37.12000, 9.
37.26000, 9.
37.40000, 11.
37.54000, 7.
37.68000, 11.
37.82000, 11.
37.96000, 9.
38.10000, 5.
38.24000, 6.
38.38000, 6.
38.52000, 5.
38.66000, 4.
38.80000, 9.
38.94000, 10.
39.08000, 5.
39.22000, 11.
39.36000, 6.
39.50000, 3.
39.64000, 10.
39.78000, 5.
39.92000, 5.
40.06000, 2.
40.20000, 2.
40.34000, 6.
40.48000, 9.
40.55000, 0.
#ENDOFDATA   :

File: Spectrum 24.txt
#FORMAT      : EMSA/MAS Spectral Data File
#VERSION     : 1.0
#TITLE       : Spectrum 24
#DATE        : 21-AUG-2025
#TIME        : 15:28
#OWNER       : XGT7200
#NPOINTS     : 4096.
#NCOLUMNS    : 1.
#XUNITS      : keV
#YUNITS      : counts
#DATATYPE    : XY
#XPERCHAN    : 0.0100000
#OFFSET      : -0.400000
#SIGNALTYPE  : EDS
#CHOFFSET    : 40.0000
#LIVETIME    : 30
#REALTIME    : 39.5983
#BEAMKV      : 50.0000
#PROBECUR    : 683000.
#MAGCAM      : 100.000
#XTILTSTGE   : 0.0
#AZIMANGLE   : 0.0
#ELEVANGLE   : 45.0
#XPOSITION mm: 0.0000
#YPOSITION mm: 0.0000
#ZPOSITION mm: 0.0000
##OXINSTPT   : 4
##OXINSTSTROB: 71.84
#SPECTRUM    : Spectral Data Starts Here
-0.40000, 0.
-0.26000, 0.
-0.12000, 0.
0.02000, 0.
0.16000, 0.
0.30000, 0.
0.44000, 35.
0.58000, 39.
0.72000, 34.
0.86000, 40.
1.00000, 49.
1.14000, 42.
1.28000, 82.
1.42000, 203.
1.56000, 305.
1.70000, 3108.
1.84000, 702.
1.98000, 71.
2.12000, 43.
2.26000, 58.
2.40000, 40.
2.54000, 32.
2.68000, 506.
2.82000, 242.
2.96000, 92.
3.10000, 36.
3.24000, 246.
3.38000, 376.
3.52000, 82.
3.66000, 1542.
3.80000, 249.
3.94000, 119.
4.08000, 150.
4.22000, 24.
4.36000, 35.
4.50000, 466.
4.64000, 126.
4.78000, 63.
4.92000, 128.
5.06000, 58.
5.20000, 67.
5.34000, 65.
5.48000, 73.
5.62000, 58.
5.76000, 73.
5.90000, 322.
6.04000, 103.
6.18000, 149.
6.32000, 7441.
6.46000, 10763.
6.60000, 194.
6.74000, 97.
6.88000, 212.
7.02000, 2410.
7.16000, 743.
7.30000, 57.
7.44000, 92.
7.58000, 73.
7.72000, 82.
7.86000, 92.
8.00000, 103.
8.14000, 141.
8.28000, 96.
8.42000, 81.
8.56000, 161.
8.70000, 182.
8.84000, 105.
8.98000, 120.
9.12000, 106.
9.26000, 140.
9.40000, 107.
9.54000, 136.
9.68000, 117.
9.82000, 110.
9.96000, 103.
10.10000, 122.
10.24000, 115.
10.38000, 117.
10.52000, 180.
10.66000, 144.
10.80000, 150.
10.94000, 131.
11.08000, 124.
11.22000, 113.
11.36000, 130.
11.50000, 121.
11.64000, 124.
11.78000, 144.
11.92000, 136.
12.06000, 142.
12.20000, 155.
12.34000, 103.
12.48000, 152.
12.62000, 191.
12.76000, 195.
12.90000, 173.
13.04000, 145.
13.18000, 150.
13.32000, 216.
13.46000, 219.
13.60000, 137.
13.74000, 131.
13.88000, 131.
14.02000, 361.
14.16000, 503.
14.30000, 195.
14.44000, 160.
14.58000, 124.
14.72000, 154.
14.86000, 156.
15.00000, 148.
15.14000, 133.
15.28000, 135.
15.42000, 142.
15.56000, 168.
15.70000, 281.
15.84000, 260.
15.98000, 135.
16.12000, 140.
16.26000, 143.
16.40000, 144.
16.54000, 165.
16.68000, 160.
16.82000, 129.
16.96000, 153.
17.10000, 142.
17.24000, 169.
17.38000, 167.
17.52000, 192.
17.66000, 186.
17.80000, 157.
17.94000, 189.
18.08000, 207.
18.22000, 291.
18.36000, 343.
18.50000, 532.
18.64000, 693.
18.78000, 845.
18.92000, 715.
19.06000, 575.
19.20000, 349.
19.34000, 271.
19.48000, 224.
19.62000, 174.
19.76000, 158.
19.90000, 184.
20.04000, 408.
20.18000, 507.
20.32000, 247.
20.46000, 136.
20.60000, 153.
20.74000, 182.
20.88000, 227.
21.02000, 206.
21.16000, 204.
21.30000, 165.
21.44000, 144.
21.58000, 125.
21.72000, 116.
21.86000, 86.
22.00000, 84.
22.14000, 79.
22.28000, 78.
22.42000, 65.
22.56000, 102.
22.70000, 139.
22.84000, 99.
22.98000, 65.
23.12000, 82.
23.26000, 69.
23.40000, 41.
23.54000, 57.
23.68000, 63.
23.82000, 59.
23.96000, 49.
24.10000, 55.
24.24000, 66.
24.38000, 61.
24.52000, 64.
24.66000, 68.
24.80000, 70.
24.94000, 57.
25.08000, 53.
25.22000, 80.
25.36000, 57.
25.50000, 58.
25.64000, 59.
25.78000, 43.
25.92000, 66.
26.06000, 38.
26.20000, 48.
26.34000, 47.
26.48000, 59.
26.62000, 40.
26.76000, 44.
26.90000, 56.
27.04000, 38.
27.18000, 52.
27.32000, 45.
27.46000, 53.
27.60000, 44.
27.74000, 48.
27.88000, 43.
28.02000, 35.
28.16000, 46.
28.30000, 45.
28.44000, 34.
28.58000, 26.
28.72000, 38.
28.86000, 34.
29.00000, 34.
29.14000, 45.
29.28000, 26.
29.42000, 24.
29.56000, 29.
29.70000, 31.
29.84000, 21.
29.98000, 35.
30.12000, 30.
30.26000, 27.
30.40000, 34.
30.54000, 34.
30.68000, 38.
30.82000, 30.
30.96000, 31.
31.10000, 30.
31.24000, 28.
31.38000, 31.
31.52000, 23.
31.66000, 25.
31.80000, 35.
31.94000, 26.
32.08000, 27.
32.22000, 38.
32.36000, 25.
32.50000, 20.
32.64000, 32.
32.78000, 26.
32.92000, 18.
33.06000, 22.
33.20000, 26.
33.34000, 17.
33.48000, 18.
33.62000, 17.
33.76000, 16.
33.90000, 20.
34.04000, 15.
34.18000, 16.
34.32000, 16.
34.46000, 25.
34.60000, 19.
34.74000, 20.
34.88000, 11.
35.02000, 16.
35.16000, 18.
35.30000, 22.
35.44000, 14.
35.58000, 12.
35.72000, 15.
35.86000, 15.
36.00000, 14.
36.14000, 15.
36.28000, 14.
36.42000, 13.
36.56000, 5.
36.70000, 11.
36.84000, 15.
36.98000, 10.
37.12000, 14.
37.26000, 14.
37.40000, 9.
37.54000, 13.
37.68000, 12.
37.82000, 10.
37.96000, 7.
38.10000, 8.
38.24000, 5.
38.38000, 7.
38.52000, 13.
38.66000, 4.
38.80000, 4.
38.94000, 7.
39.08000, 5.
39.22000, 8.
39.36000, 5.
39.50000, 5.
39.64000, 2.
39.78000, 5.
39.92000, 11.
40.06000, 4.
40.20000, 7.
40.34000, 5.
40.48000, 4.
40.55000, 0.
#ENDOFDATA   :