Folder: XRFLab/sample_data/data/Spectrum value from standard/Till 1

Note: README.md
# FpXrF
fundamental parameters GUI for X-ray fluoresence spectroscopy

File: Spectrum 1, till 1.txt
#FORMAT      : EMSA/MAS Spectral Data File
#VERSION     : 1.0
#TITLE       : Spectrum 1
#DATE        : 21-AUG-2025
#TIME        : 15:05
#OWNER       : XGT7200
#NPOINTS     : 4096.
#NCOLUMNS    : 1.
#XUNITS      : keV
#YUNITS      : counts
#DATATYPE    : XY
#XPERCHAN    : 0.0100000
#OFFSET      : -0.400000
#SIGNALTYPE  : EDS
#CHOFFSET    : 40.0000
#LIVETIME    : 30
#REALTIME    : 39.5988
#BEAMKV      : 50.0000
#PROBECUR    : 733000.
#MAGCAM      : 100.000
#XTILTSTGE   : 0.0
#AZIMANGLE   : 0.0
#ELEVANGLE   : 45.0
#XPOSITION mm: 0.0000
#YPOSITION mm: 0.0000
#ZPOSITION mm: 0.0000
##OXINSTPT   : 4
##OXINSTSTROB: 71.96
#SPECTRUM    : Spectral Data Starts Here
-0.40000, 0.
-0.26000, 0.
-0.12000, 0.
0.02000, 0.
0.16000, 0.
0.30000, 0.
0.44000, 32.
0.58000, 37.
0.72000, 35.
0.86000, 35.
1.00000, 45.
1.14000, 42.
1.28000, 63.
1.42000, 189.
1.56000, 259.
1.70000, 3523.
1.84000, 734.
1.98000, 78.
2.12000, 28.
2.26000, 38.
2.40000, 32.
2.54000, 37.
2.68000, 385.
2.82000, 314.
2.96000, 79.
3.10000, 36.
3.24000, 266.
3.38000, 397.
3.52000, 68.
3.66000, 962.
3.80000, 185.
3.94000, 82.
4.08000, 113.
4.22000, 32.
4.36000, 51.
4.50000, 650.
4.64000, 138.
4.78000, 73.
4.92000, 149.
5.06000, 59.
5.20000, 53.
5.34000, 66.
5.48000, 68.
5.62000, 58.
5.76000, 87.
5.90000, 459.
6.04000, 90.
6.18000, 134.
6.32000, 6911.
6.46000, 9771.
6.60000, 207.
6.74000, 94.
6.88000, 216.
7.02000, 2212.
7.16000, 724.
7.30000, 85.
7.44000, 91.
7.58000, 74.
7.72000, 81.
7.86000, 103.
8.00000, 116.
8.14000, 137.
8.28000, 92.
8.42000, 107.
8.56000, 137.
8.70000, 137.
8.84000, 128.
8.98000, 126.
9.12000, 124.
9.26000, 119.
9.40000, 122.
9.54000, 133.
9.68000, 122.
9.82000, 136.
9.96000, 136.
10.10000, 135.
10.24000, 133.
10.38000, 125.
10.52000, 146.
10.66000, 136.
10.80000, 108.
10.94000, 138.
11.08000, 118.
11.22000, 122.
11.36000, 125.
11.50000, 135.
11.64000, 157.
11.78000, 141.
11.92000, 144.
12.06000, 143.
12.20000, 144.
12.34000, 146.
12.48000, 136.
12.62000, 164.
12.76000, 168.
12.90000, 179.
13.04000, 154.
13.18000, 166.
13.32000, 172.
13.46000, 174.
13.60000, 147.
13.74000, 177.
13.88000, 145.
14.02000, 278.
14.16000, 377.
14.30000, 192.
14.44000, 140.
14.58000, 147.
14.72000, 144.
14.86000, 186.
15.00000, 180.
15.14000, 151.
15.28000, 152.
15.42000, 150.
15.56000, 227.
15.70000, 527.
15.84000, 341.
15.98000, 175.
16.12000, 141.
16.26000, 146.
16.40000, 139.
16.54000, 151.
16.68000, 134.
16.82000, 130.
16.96000, 146.
17.10000, 170.
17.24000, 140.
17.38000, 163.
17.52000, 198.
17.66000, 217.
17.80000, 204.
17.94000, 215.
18.08000, 259.
18.22000, 270.
18.36000, 362.
18.50000, 578.
18.64000, 772.
18.78000, 901.
18.92000, 794.
19.06000, 591.
19.20000, 425.
19.34000, 304.
19.48000, 215.
19.62000, 205.
19.76000, 165.
19.90000, 219.
20.04000, 430.
20.18000, 514.
20.32000, 268.
20.46000, 146.
20.60000, 152.
20.74000, 195.
20.88000, 211.
21.02000, 231.
21.16000, 199.
21.30000, 198.
21.44000, 160.
21.58000, 144.
21.72000, 112.
21.86000, 101.
22.00000, 96.
22.14000, 86.
22.28000, 90.
22.42000, 83.
22.56000, 107.
22.70000, 134.
22.84000, 80.
22.98000, 71.
23.12000, 83.
23.26000, 66.
23.40000, 61.
23.54000, 55.
23.68000, 61.
23.82000, 57.
23.96000, 73.
24.10000, 60.
24.24000, 72.
24.38000, 60.
24.52000, 67.
24.66000, 62.
24.80000, 63.
24.94000, 59.
25.08000, 71.
25.22000, 69.
25.36000, 52.
25.50000, 45.
25.64000, 46.
25.78000, 69.
25.92000, 55.
26.06000, 64.
26.20000, 51.
26.34000, 62.
26.48000, 52.
26.62000, 62.
26.76000, 46.
26.90000, 53.
27.04000, 37.
27.18000, 43.
27.32000, 63.
27.46000, 57.
27.60000, 47.
27.74000, 29.
27.88000, 45.
28.02000, 60.
28.16000, 50.
28.30000, 36.
28.44000, 61.
28.58000, 43.
28.72000, 37.
28.86000, 41.
29.00000, 49.
29.14000, 30.
29.28000, 46.
29.42000, 39.
29.56000, 35.
29.70000, 41.
29.84000, 32.
29.98000, 40.
30.12000, 40.
30.26000, 24.
30.40000, 20.
30.54000, 25.
30.68000, 27.
30.82000, 34.
30.96000, 29.
31.10000, 26.
31.24000, 25.
31.38000, 42.
31.52000, 25.
31.66000, 33.
31.80000, 28.
31.94000, 24.
32.08000, 27.
32.22000, 33.
32.36000, 29.
32.50000, 25.
32.64000, 24.
32.78000, 21.
32.92000, 24.
33.06000, 30.
33.20000, 26.
33.34000, 15.
33.48000, 23.
33.62000, 24.
33.76000, 18.
33.90000, 22.
34.04000, 23.
34.18000, 20.
34.32000, 20.
34.46000, 18.
34.60000, 11.
34.74000, 17.
34.88000, 14.
35.02000, 10.
35.16000, 16.
35.30000, 11.
35.44000, 14.
35.58000, 20.
35.72000, 16.
35.86000, 12.
36.00000, 13.
36.14000, 12.
36.28000, 16.
36.42000, 15.
36.56000, 12.
36.70000, 11.
36.84000, 12.
36.98000, 12.
37.12000, 13.
37.26000, 14.
37.40000, 6.
37.54000, 5.
37.68000, 13.
37.82000, 16.
37.96000, 10.
38.10000, 10.
38.24000, 12.
38.38000, 4.
38.52000, 9.
38.66000, 7.
38.80000, 4.
38.94000, 10.
39.08000, 5.
39.22000, 3.
39.36000, 5.
39.50000, 12.
39.64000, 10.
39.78000, 10.
39.92000, 5.
40.06000, 4.
40.20000, 4.
40.34000, 5.
40.48000, 2.
40.55000, 0.
#ENDOFDATA   :

File: Spectrum 2.txt
#FORMAT      : EMSA/MAS Spectral Data File
#VERSION     : 1.0
#TITLE       : Spectrum 2
#DATE        : 21-AUG-2025
#TIME        : 15:06
#OWNER       : XGT7200
#NPOINTS     : 4096.
#NCOLUMNS    : 1.
#XUNITS      : keV
#YUNITS      : counts
#DATATYPE    : XY
#XPERCHAN    : 0.0100000
#OFFSET      : -0.400000
#SIGNALTYPE  : EDS
#CHOFFSET    : 40.0000
#LIVETIME    : 30
#REALTIME    : 39.479
#BEAMKV      : 50.0000
#PROBECUR    : 695000.
#MAGCAM      : 100.000
#XTILTSTGE   : 0.0
#AZIMANGLE   : 0.0
#ELEVANGLE   : 45.0
#XPOSITION mm: 0.0000
#YPOSITION mm: 0.0000
#ZPOSITION mm: 0.0000
##OXINSTPT   : 4
##OXINSTSTROB: 72.06
#SPECTRUM    : Spectral Data Starts Here
-0.40000, 0.
-0.26000, 0.
-0.12000, 0.
0.02000, 0.
0.16000, 0.
0.30000, 0.
0.44000, 38.
0.58000, 38.
0.72000, 26.
0.86000, 42.
1.00000, 44.
1.14000, 40.
1.28000, 60.
1.42000, 165.
1.56000, 224.
1.70000, 3240.
1.84000, 748.
1.98000, 74.
2.12000, 30.
2.26000, 50.
2.40000, 30.
2.54000, 37.
2.68000, 451.
2.82000, 265.
2.96000, 72.
3.10000, 25.
3.24000, 243.
3.38000, 323.
3.52000, 77.
3.66000, 963.
3.80000, 147.
3.94000, 89.
4.08000, 109.
4.22000, 21.
4.36000, 55.
4.50000, 633.
4.64000, 113.
4.78000, 80.
4.92000, 155.
5.06000, 60.
5.20000, 63.
5.34000, 61.
5.48000, 73.
5.62000, 52.
5.76000, 90.
5.90000, 467.
6.04000, 90.
6.18000, 167.
6.32000, 7183.
6.46000, 9916.
6.60000, 192.
6.74000, 99.
6.88000, 210.
7.02000, 2314.
7.16000, 747.
7.30000, 90.
7.44000, 68.
7.58000, 79.
7.72000, 85.
7.86000, 93.
8.00000, 128.
8.14000, 138.
8.28000, 94.
8.42000, 111.
8.56000, 128.
8.70000, 127.
8.84000, 117.
8.98000, 127.
9.12000, 133.
9.26000, 132.
9.40000, 108.
9.54000, 96.
9.68000, 137.
9.82000, 128.
9.96000, 117.
10.10000, 120.
10.24000, 116.
10.38000, 114.
10.52000, 133.
10.66000, 139.
10.80000, 132.
10.94000, 111.
11.08000, 157.
11.22000, 140.
11.36000, 115.
11.50000, 136.
11.64000, 129.
11.78000, 135.
11.92000, 150.
12.06000, 138.
12.20000, 136.
12.34000, 151.
12.48000, 143.
12.62000, 140.
12.76000, 189.
12.90000, 159.
13.04000, 162.
13.18000, 124.
13.32000, 206.
13.46000, 177.
13.60000, 146.
13.74000, 146.
13.88000, 154.
14.02000, 301.
14.16000, 378.
14.30000, 176.
14.44000, 133.
14.58000, 140.
14.72000, 136.
14.86000, 167.
15.00000, 164.
15.14000, 135.
15.28000, 147.
15.42000, 142.
15.56000, 252.
15.70000, 562.
15.84000, 381.
15.98000, 170.
16.12000, 131.
16.26000, 144.
16.40000, 150.
16.54000, 134.
16.68000, 143.
16.82000, 145.
16.96000, 154.
17.10000, 163.
17.24000, 150.
17.38000, 145.
17.52000, 197.
17.66000, 228.
17.80000, 202.
17.94000, 215.
18.08000, 240.
18.22000, 285.
18.36000, 357.
18.50000, 562.
18.64000, 746.
18.78000, 866.
18.92000, 796.
19.06000, 556.
19.20000, 386.
19.34000, 305.
19.48000, 233.
19.62000, 152.
19.76000, 145.
19.90000, 226.
20.04000, 424.
20.18000, 496.
20.32000, 243.
20.46000, 158.
20.60000, 154.
20.74000, 215.
20.88000, 202.
21.02000, 215.
21.16000, 184.
21.30000, 194.
21.44000, 137.
21.58000, 105.
21.72000, 98.
21.86000, 104.
22.00000, 90.
22.14000, 87.
22.28000, 81.
22.42000, 84.
22.56000, 119.
22.70000, 140.
22.84000, 105.
22.98000, 75.
23.12000, 73.
23.26000, 73.
23.40000, 65.
23.54000, 75.
23.68000, 67.
23.82000, 67.
23.96000, 78.
24.10000, 61.
24.24000, 64.
24.38000, 66.
24.52000, 59.
24.66000, 64.
24.80000, 70.
24.94000, 64.
25.08000, 65.
25.22000, 49.
25.36000, 82.
25.50000, 69.
25.64000, 46.
25.78000, 51.
25.92000, 46.
26.06000, 48.
26.20000, 43.
26.34000, 59.
26.48000, 53.
26.62000, 61.
26.76000, 47.
26.90000, 47.
27.04000, 37.
27.18000, 54.
27.32000, 45.
27.46000, 54.
27.60000, 55.
27.74000, 48.
27.88000, 43.
28.02000, 52.
28.16000, 46.
28.30000, 48.
28.44000, 42.
28.58000, 42.
28.72000, 39.
28.86000, 34.
29.00000, 44.
29.14000, 37.
29.28000, 39.
29.42000, 32.
29.56000, 38.
29.70000, 35.
29.84000, 35.
29.98000, 18.
30.12000, 26.
30.26000, 31.
30.40000, 42.
30.54000, 35.
30.68000, 37.
30.82000, 31.
30.96000, 38.
31.10000, 33.
31.24000, 27.
31.38000, 25.
31.52000, 23.
31.66000, 24.
31.80000, 31.
31.94000, 30.
32.08000, 35.
32.22000, 24.
32.36000, 26.
32.50000, 22.
32.64000, 26.
32.78000, 27.
32.92000, 29.
33.06000, 17.
33.20000, 24.
33.34000, 17.
33.48000, 28.
33.62000, 31.
33.76000, 24.
33.90000, 23.
34.04000, 27.
34.18000, 18.
34.32000, 13.
34.46000, 13.
34.60000, 15.
34.74000, 20.
34.88000, 13.
35.02000, 19.
35.16000, 22.
35.30000, 12.
35.44000, 20.
35.58000, 23.
35.72000, 10.
35.86000, 14.
36.00000, 13.
36.14000, 22.
36.28000, 19.
36.42000, 18.
36.56000, 12.
36.70000, 9.
36.84000, 10.
36.98000, 12.
37.12000, 17.
37.26000, 10.
37.40000, 8.
37.54000, 9.
37.68000, 9.
37.82000, 5.
37.96000, 8.
38.10000, 7.
38.24000, 8.
38.38000, 5.
38.52000, 9.
38.66000, 9.
38.80000, 5.
38.94000, 5.
39.08000, 8.
39.22000, 7.
39.36000, 6.
39.50000, 2.
39.64000, 4.
39.78000, 9.
39.92000, 6.
40.06000, 5.
40.20000, 7.
40.34000, 2.
40.48000, 3.
40.55000, 0.
#ENDOFDATA   :

File: Spectrum 3.txt
#FORMAT      : EMSA/MAS Spectral Data File
#VERSION     : 1.0
#TITLE       : Spectrum 3
#DATE        : 21-AUG-2025
#TIME        : 15:07
#OWNER       : XGT7200
#NPOINTS     : 4096.
#NCOLUMNS    : 1.
#XUNITS      : keV
#YUNITS      : counts
#DATATYPE    : XY
#XPERCHAN    : 0.0100000
#OFFSET      : -0.400000
#SIGNALTYPE  : EDS
#CHOFFSET    : 40.0000
#LIVETIME    : 30
#REALTIME    : 39.5898
#BEAMKV      : 50.0000
#PROBECUR    : 703000.
#MAGCAM      : 100.000
#XTILTSTGE   : 0.0
#AZIMANGLE   : 0.0
#ELEVANGLE   : 45.0
#XPOSITION mm: 0.0000
#YPOSITION mm: 0.0000
#ZPOSITION mm: 0.0000
##OXINSTPT   : 4
##OXINSTSTROB: 72.34
#SPECTRUM    : Spectral Data Starts Here
-0.40000, 0.
-0.26000, 0.
-0.12000, 0.
0.02000, 0.
0.16000, 0.
0.30000, 0.
0.44000, 41.
0.58000, 34.
0.72000, 38.
0.86000, 48.
1.00000, 51.
1.14000, 46.
1.28000, 63.
1.42000, 193.
1.56000, 261.
1.70000, 3536.
1.84000, 780.
1.98000, 71.
2.12000, 38.
2.26000, 41.
2.40000, 29.
2.54000, 38.
2.68000, 406.
2.82000, 258.
2.96000, 103.
3.10000, 21.
3.24000, 257.
3.38000, 364.
3.52000, 82.
3.66000, 1069.
3.80000, 182.
3.94000, 92.
4.08000, 115.
4.22000, 22.
4.36000, 55.
4.50000, 826.
4.64000, 151.
4.78000, 57.
4.92000, 195.
5.06000, 52.
5.20000, 62.
5.34000, 74.
5.48000, 56.
5.62000, 56.
5.76000, 68.
5.90000, 461.
6.04000, 94.
6.18000, 155.
6.32000, 7107.
6.46000, 9657.
6.60000, 208.
6.74000, 106.
6.88000, 250.
7.02000, 2290.
7.16000, 670.
7.30000, 68.
7.44000, 78.
7.58000, 72.
7.72000, 69.
7.86000, 92.
8.00000, 128.
8.14000, 132.
8.28000, 109.
8.42000, 106.
8.56000, 145.
8.70000, 136.
8.84000, 128.
8.98000, 98.
9.12000, 117.
9.26000, 131.
9.40000, 127.
9.54000, 138.
9.68000, 139.
9.82000, 113.
9.96000, 113.
10.10000, 125.
10.24000, 132.
10.38000, 118.
10.52000, 165.
10.66000, 128.
10.80000, 137.
10.94000, 129.
11.08000, 117.
11.22000, 144.
11.36000, 147.
11.50000, 138.
11.64000, 136.
11.78000, 135.
11.92000, 141.
12.06000, 131.
12.20000, 138.
12.34000, 121.
12.48000, 129.
12.62000, 149.
12.76000, 168.
12.90000, 168.
13.04000, 128.
13.18000, 142.
13.32000, 177.
13.46000, 182.
13.60000, 146.
13.74000, 185.
13.88000, 154.
14.02000, 313.
14.16000, 389.
14.30000, 175.
14.44000, 149.
14.58000, 160.
14.72000, 144.
14.86000, 184.
15.00000, 179.
15.14000, 166.
15.28000, 137.
15.42000, 148.
15.56000, 224.
15.70000, 518.
15.84000, 417.
15.98000, 190.
16.12000, 119.
16.26000, 154.
16.40000, 99.
16.54000, 137.
16.68000, 164.
16.82000, 124.
16.96000, 146.
17.10000, 152.
17.24000, 142.
17.38000, 150.
17.52000, 218.
17.66000, 239.
17.80000, 204.
17.94000, 230.
18.08000, 215.
18.22000, 289.
18.36000, 385.
18.50000, 543.
18.64000, 760.
18.78000, 857.
18.92000, 793.
19.06000, 595.
19.20000, 421.
19.34000, 275.
19.48000, 221.
19.62000, 170.
19.76000, 167.
19.90000, 236.
20.04000, 393.
20.18000, 508.
20.32000, 267.
20.46000, 151.
20.60000, 164.
20.74000, 187.
20.88000, 242.
21.02000, 221.
21.16000, 188.
21.30000, 189.
21.44000, 151.
21.58000, 125.
21.72000, 121.
21.86000, 95.
22.00000, 94.
22.14000, 73.
22.28000, 78.
22.42000, 89.
22.56000, 107.
22.70000, 148.
22.84000, 93.
22.98000, 86.
23.12000, 69.
23.26000, 65.
23.40000, 59.
23.54000, 70.
23.68000, 61.
23.82000, 62.
23.96000, 67.
24.10000, 58.
24.24000, 53.
24.38000, 67.
24.52000, 52.
24.66000, 76.
24.80000, 57.
24.94000, 69.
25.08000, 69.
25.22000, 66.
25.36000, 51.
25.50000, 55.
25.64000, 68.
25.78000, 46.
25.92000, 66.
26.06000, 62.
26.20000, 58.
26.34000, 52.
26.48000, 48.
26.62000, 46.
26.76000, 38.
26.90000, 45.
27.04000, 45.
27.18000, 42.
27.32000, 52.
27.46000, 49.
27.60000, 46.
27.74000, 41.
27.88000, 44.
28.02000, 38.
28.16000, 31.
28.30000, 37.
28.44000, 42.
28.58000, 42.
28.72000, 31.
28.86000, 38.
29.00000, 36.
29.14000, 43.
29.28000, 36.
29.42000, 39.
29.56000, 41.
29.70000, 36.
29.84000, 42.
29.98000, 27.
30.12000, 30.
30.26000, 31.
30.40000, 33.
30.54000, 30.
30.68000, 34.
30.82000, 22.
30.96000, 22.
31.10000, 24.
31.24000, 35.
31.38000, 30.
31.52000, 28.
31.66000, 28.
31.80000, 36.
31.94000, 30.
32.08000, 30.
32.22000, 21.
32.36000, 30.
32.50000, 16.
32.64000, 21.
32.78000, 18.
32.92000, 28.
33.06000, 20.
33.20000, 18.
33.34000, 24.
33.48000, 25.
33.62000, 19.
33.76000, 13.
33.90000, 9.
34.04000, 14.
34.18000, 23.
34.32000, 22.
34.46000, 18.
34.60000, 16.
34.74000, 11.
34.88000, 16.
35.02000, 15.
35.16000, 20.
35.30000, 16.
35.44000, 14.
35.58000, 19.
35.72000, 20.
35.86000, 15.
36.00000, 14.
36.14000, 8.
36.28000, 19.
36.42000, 12.
36.56000, 16.
36.70000, 9.
36.84000, 9.
36.98000, 9.
37.12000, 14.
37.26000, 12.
37.40000, 13.
37.54000, 10.
37.68000, 8.
37.82000, 7.
37.96000, 11.
38.10000, 12.
38.24000, 15.
38.38000, 9.
38.52000, 8.
38.66000, 8.
38.80000, 6.
38.94000, 14.
39.08000, 7.
39.22000, 2.
39.36000, 9.
39.50000, 4.
39.64000, 6.
39.78000, 6.
39.92000, 4.
40.06000, 5.
40.20000, 4.
40.34000, 3.
40.48000, 3.
40.55000, 0.
#ENDOFDATA   :

File: Spectrum 4.txt
#FORMAT      : EMSA/MAS Spectral Data File
#VERSION     : 1.0
#TITLE       : Spectrum 4
#DATE        : 21-AUG-2025
#TIME        : 15:08
#OWNER       : XGT7200
#NPOINTS     : 4096.
#NCOLUMNS    : 1.
#XUNITS      : keV
#YUNITS      : counts
#DATATYPE    : XY
#XPERCHAN    : 0.0100000
#OFFSET      : -0.400000
#SIGNALTYPE  : EDS
#CHOFFSET    : 40.0000
#LIVETIME    : 30
#REALTIME    : 39.5541
#BEAMKV      : 50.0000
#PROBECUR    : 692000.
#MAGCAM      : 100.000
#XTILTSTGE   : 0.0
#AZIMANGLE   : 0.0
#ELEVANGLE   : 45.0
#XPOSITION mm: 0.0000
#YPOSITION mm: 0.0000
#ZPOSITION mm: 0.0000
##OXINSTPT   : 4
##OXINSTSTROB: 71.91
#SPECTRUM    : Spectral Data Starts Here
-0.40000, 0.
-0.26000, 0.
-0.12000, 0.
0.02000, 0.
0.16000, 0.
0.30000, 0.
0.44000, 42.
0.58000, 36.
0.72000, 36.
0.86000, 31.
1.00000, 45.
1.14000, 38.
1.28000, 71.
1.42000, 195.
1.56000, 248.
1.70000, 3393.
1.84000, 755.
1.98000, 82.
2.12000, 35.
2.26000, 34.
2.40000, 34.
2.54000, 42.
2.68000, 407.
2.82000, 291.
2.96000, 84.
3.10000, 32.
3.24000, 214.
3.38000, 382.
3.52000, 80.
3.66000, 934.
3.80000, 147.
3.94000, 73.
4.08000, 117.
4.22000, 37.
4.36000, 47.
4.50000, 612.
4.64000, 137.
4.78000, 52.
4.92000, 152.
5.06000, 63.
5.20000, 65.
5.34000, 63.
5.48000, 78.
5.62000, 59.
5.76000, 82.
5.90000, 558.
6.04000, 107.
6.18000, 149.
6.32000, 6980.
6.46000, 9477.
6.60000, 173.
6.74000, 107.
6.88000, 205.
7.02000, 2258.
7.16000, 707.
7.30000, 73.
7.44000, 68.
7.58000, 72.
7.72000, 65.
7.86000, 112.
8.00000, 146.
8.14000, 137.
8.28000, 99.
8.42000, 107.
8.56000, 158.
8.70000, 140.
8.84000, 113.
8.98000, 88.
9.12000, 122.
9.26000, 131.
9.40000, 110.
9.54000, 138.
9.68000, 131.
9.82000, 139.
9.96000, 125.
10.10000, 130.
10.24000, 124.
10.38000, 114.
10.52000, 144.
10.66000, 113.
10.80000, 119.
10.94000, 121.
11.08000, 108.
11.22000, 122.
11.36000, 144.
11.50000, 131.
11.64000, 148.
11.78000, 149.
11.92000, 162.
12.06000, 130.
12.20000, 135.
12.34000, 142.
12.48000, 126.
12.62000, 147.
12.76000, 167.
12.90000, 183.
13.04000, 132.
13.18000, 150.
13.32000, 204.
13.46000, 177.
13.60000, 138.
13.74000, 171.
13.88000, 142.
14.02000, 283.
14.16000, 412.
14.30000, 195.
14.44000, 124.
14.58000, 152.
14.72000, 156.
14.86000, 173.
15.00000, 163.
15.14000, 167.
15.28000, 178.
15.42000, 142.
15.56000, 272.
15.70000, 597.
15.84000, 456.
15.98000, 183.
16.12000, 163.
16.26000, 144.
16.40000, 147.
16.54000, 161.
16.68000, 162.
16.82000, 155.
16.96000, 161.
17.10000, 154.
17.24000, 172.
17.38000, 153.
17.52000, 200.
17.66000, 260.
17.80000, 220.
17.94000, 213.
18.08000, 254.
18.22000, 277.
18.36000, 369.
18.50000, 551.
18.64000, 797.
18.78000, 870.
18.92000, 824.
19.06000, 604.
19.20000, 381.
19.34000, 250.
19.48000, 242.
19.62000, 185.
19.76000, 182.
19.90000, 197.
20.04000, 459.
20.18000, 503.
20.32000, 252.
20.46000, 154.
20.60000, 166.
20.74000, 210.
20.88000, 218.
21.02000, 216.
21.16000, 214.
21.30000, 182.
21.44000, 151.
21.58000, 117.
21.72000, 112.
21.86000, 95.
22.00000, 87.
22.14000, 93.
22.28000, 69.
22.42000, 76.
22.56000, 121.
22.70000, 131.
22.84000, 110.
22.98000, 88.
23.12000, 80.
23.26000, 67.
23.40000, 74.
23.54000, 58.
23.68000, 75.
23.82000, 67.
23.96000, 71.
24.10000, 64.
24.24000, 69.
24.38000, 58.
24.52000, 54.
24.66000, 52.
24.80000, 74.
24.94000, 75.
25.08000, 84.
25.22000, 61.
25.36000, 58.
25.50000, 50.
25.64000, 53.
25.78000, 51.
25.92000, 65.
26.06000, 54.
26.20000, 56.
26.34000, 51.
26.48000, 56.
26.62000, 60.
26.76000, 47.
26.90000, 54.
27.04000, 42.
27.18000, 59.
27.32000, 47.
27.46000, 41.
27.60000, 56.
27.74000, 41.
27.88000, 41.
28.02000, 47.
28.16000, 44.
28.30000, 54.
28.44000, 53.
28.58000, 41.
28.72000, 48.
28.86000, 46.
29.00000, 44.
29.14000, 43.
29.28000, 38.
29.42000, 46.
29.56000, 32.
29.70000, 27.
29.84000, 39.
29.98000, 42.
30.12000, 35.
30.26000, 43.
30.40000, 26.
30.54000, 33.
30.68000, 31.
30.82000, 36.
30.96000, 38.
31.10000, 33.
31.24000, 32.
31.38000, 31.
31.52000, 33.
31.66000, 32.
31.80000, 35.
31.94000, 37.
32.08000, 40.
32.22000, 34.
32.36000, 27.
32.50000, 20.
32.64000, 37.
32.78000, 29.
32.92000, 19.
33.06000, 21.
33.20000, 26.
33.34000, 26.
33.48000, 20.
33.62000, 23.
33.76000, 24.
33.90000, 18.
34.04000, 16.
34.18000, 17.
34.32000, 15.
34.46000, 14.
34.60000, 15.
34.74000, 31.
34.88000, 16.
35.02000, 11.
35.16000, 11.
35.30000, 20.
35.44000, 12.
35.58000, 15.
35.72000, 14.
35.86000, 16.
36.00000, 12.
36.14000, 7.
36.28000, 12.
36.42000, 11.
36.56000, 14.
36.70000, 13.
36.84000, 9.
36.98000, 15.
37.12000, 7.
37.26000, 11.
37.40000, 9.
37.54000, 7.
37.68000, 10.
37.82000, 11.
37.96000, 7.
38.10000, 11.
38.24000, 12.
38.38000, 10.
38.52000, 8.
38.66000, 5.
38.80000, 9.
38.94000, 4.
39.08000, 7.
39.22000, 3.
39.36000, 7.
39.50000, 9.
39.64000, 5.
39.78000, 5.
39.92000, 6.
40.06000, 5.
40.20000, 7.
40.34000, 6.
40.48000, 1.
40.55000, 0.
#ENDOFDATA   :

File: Spectrum 5.txt
#FORMAT      : EMSA/MAS Spectral Data File
#VERSION     : 1.0
#TITLE       : Spectrum 5
#DATE        : 21-AUG-2025
#TIME        : 15:09
#OWNER       : XGT7200
#NPOINTS     : 4096.
#NCOLUMNS    : 1.
#XUNITS      : keV
#YUNITS      : counts
#DATATYPE    : XY
#XPERCHAN    : 0.0100000
#OFFSET      : -0.400000
#SIGNALTYPE  : EDS
#CHOFFSET    : 40.0000
#LIVETIME    : 30
#REALTIME    : 39.6464
#BEAMKV      : 50.0000
#PROBECUR    : 714000.
#MAGCAM      : 100.000
#XTILTSTGE   : 0.0
#AZIMANGLE   : 0.0
#ELEVANGLE   : 45.0
#XPOSITION mm: 0.0000
#YPOSITION mm: 0.0000
#ZPOSITION mm: 0.0000
##OXINSTPT   : 4
##OXINSTSTROB: 71.90
#SPECTRUM    : Spectral Data Starts Here
-0.40000, 0.
-0.26000, 0.
-0.12000, 0.
0.02000, 0.
0.16000, 0.
0.30000, 0.
0.44000, 38.
0.58000, 35.
0.72000, 35.
0.86000, 38.
1.00000, 47.
1.14000, 38.
1.28000, 62.
1.42000, 184.
1.56000, 284.
1.70000, 3432.
1.84000, 771.
1.98000, 68.
2.12000, 36.
2.26000, 34.
2.40000, 27.
2.54000, 40.
2.68000, 426.
2.82000, 219.
2.96000, 82.
3.10000, 43.
3.24000, 232.
3.38000, 353.
3.52000, 66.
3.66000, 1048.
3.80000, 160.
3.94000, 102.
4.08000, 92.
4.22000, 30.
4.36000, 51.
4.50000, 606.
4.64000, 129.
4.78000, 68.
4.92000, 155.
5.06000, 59.
5.20000, 45.
5.34000, 49.
5.48000, 78.
5.62000, 54.
5.76000, 80.
5.90000, 437.
6.04000, 88.
6.18000, 146.
6.32000, 7085.
6.46000, 9866.
6.60000, 175.
6.74000, 116.
6.88000, 227.
7.02000, 2305.
7.16000, 686.
7.30000, 62.
7.44000, 58.
7.58000, 71.
7.72000, 80.
7.86000, 99.
8.00000, 138.
8.14000, 129.
8.28000, 113.
8.42000, 111.
8.56000, 137.
8.70000, 148.
8.84000, 107.
8.98000, 107.
9.12000, 129.
9.26000, 141.
9.40000, 128.
9.54000, 112.
9.68000, 130.
9.82000, 130.
9.96000, 106.
10.10000, 133.
10.24000, 120.
10.38000, 116.
10.52000, 168.
10.66000, 128.
10.80000, 149.
10.94000, 117.
11.08000, 141.
11.22000, 110.
11.36000, 127.
11.50000, 124.
11.64000, 131.
11.78000, 131.
11.92000, 172.
12.06000, 163.
12.20000, 155.
12.34000, 142.
12.48000, 151.
12.62000, 167.
12.76000, 185.
12.90000, 167.
13.04000, 171.
13.18000, 145.
13.32000, 197.
13.46000, 147.
13.60000, 157.
13.74000, 157.
13.88000, 160.
14.02000, 306.
14.16000, 414.
14.30000, 162.
14.44000, 166.
14.58000, 151.
14.72000, 157.
14.86000, 160.
15.00000, 151.
15.14000, 158.
15.28000, 155.
15.42000, 152.
15.56000, 241.
15.70000, 648.
15.84000, 470.
15.98000, 170.
16.12000, 169.
16.26000, 162.
16.40000, 138.
16.54000, 166.
16.68000, 138.
16.82000, 178.
16.96000, 174.
17.10000, 137.
17.24000, 163.
17.38000, 174.
17.52000, 210.
17.66000, 251.
17.80000, 189.
17.94000, 204.
18.08000, 234.
18.22000, 321.
18.36000, 386.
18.50000, 522.
18.64000, 806.
18.78000, 885.
18.92000, 774.
19.06000, 555.
19.20000, 404.
19.34000, 274.
19.48000, 233.
19.62000, 195.
19.76000, 159.
19.90000, 219.
20.04000, 410.
20.18000, 486.
20.32000, 237.
20.46000, 176.
20.60000, 170.
20.74000, 210.
20.88000, 256.
21.02000, 210.
21.16000, 217.
21.30000, 183.
21.44000, 151.
21.58000, 127.
21.72000, 110.
21.86000, 97.
22.00000, 90.
22.14000, 91.
22.28000, 79.
22.42000, 92.
22.56000, 118.
22.70000, 157.
22.84000, 87.
22.98000, 78.
23.12000, 65.
23.26000, 73.
23.40000, 61.
23.54000, 60.
23.68000, 69.
23.82000, 66.
23.96000, 74.
24.10000, 83.
24.24000, 53.
24.38000, 58.
24.52000, 57.
24.66000, 40.
24.80000, 54.
24.94000, 47.
25.08000, 56.
25.22000, 63.
25.36000, 57.
25.50000, 54.
25.64000, 50.
25.78000, 48.
25.92000, 58.
26.06000, 48.
26.20000, 40.
26.34000, 56.
26.48000, 38.
26.62000, 54.
26.76000, 41.
26.90000, 51.
27.04000, 55.
27.18000, 36.
27.32000, 46.
27.46000, 57.
27.60000, 52.
27.74000, 54.
27.88000, 42.
28.02000, 52.
28.16000, 48.
28.30000, 44.
28.44000, 40.
28.58000, 36.
28.72000, 38.
28.86000, 43.
29.00000, 56.
29.14000, 42.
29.28000, 35.
29.42000, 40.
29.56000, 34.
29.70000, 34.
29.84000, 35.
29.98000, 30.
30.12000, 30.
30.26000, 30.
30.40000, 37.
30.54000, 39.
30.68000, 37.
30.82000, 31.
30.96000, 35.
31.10000, 32.
31.24000, 35.
31.38000, 21.
31.52000, 30.
31.66000, 30.
31.80000, 30.
31.94000, 43.
32.08000, 39.
32.22000, 30.
32.36000, 23.
32.50000, 25.
32.64000, 24.
32.78000, 23.
32.92000, 22.
33.06000, 31.
33.20000, 18.
33.34000, 32.
33.48000, 21.
33.62000, 29.
33.76000, 28.
33.90000, 22.
34.04000, 27.
34.18000, 20.
34.32000, 17.
34.46000, 21.
34.60000, 19.
34.74000, 15.
34.88000, 11.
35.02000, 21.
35.16000, 24.
35.30000, 15.
35.44000, 14.
35.58000, 14.
35.72000, 16.
35.86000, 14.
36.00000, 19.
36.14000, 16.
36.28000, 13.
36.42000, 21.
36.56000, 9.
36.70000, 9.
36.84000, 10.
36.98000, 8.
37.12000, 14.
37.26000, 12.
37.40000, 13.
37.54000, 14.
37.68000, 10.
37.82000, 8.
37.96000, 9.
38.10000, 6.
38.24000, 10.
38.38000, 8.
38.52000, 9.
38.66000, 5.
38.80000, 9.
38.94000, 4.
39.08000, 6.
39.22000, 6.
39.36000, 7.
39.50000, 13.
39.64000, 3.
39.78000, 7.
39.92000, 6.
40.06000, 4.
40.20000, 4.
40.34000, 8.
40.48000, 2.
40.55000, 0.
#ENDOFDATA   :