Folder: XRFLab/sample_data/data/Spectrum value from standard/Till 1 (part 2)

File: Spectrum 6.txt
#FORMAT      : EMSA/MAS Spectral Data File
#VERSION     : 1.0
#TITLE       : Spectrum 6
#DATE        : 21-AUG-2025
#TIME        : 15:10
#OWNER       : XGT7200
#NPOINTS     : 4096.
#NCOLUMNS    : 1.
#XUNITS      : keV
#YUNITS      : counts
#DATATYPE    : XY
#XPERCHAN    : 0.0100000
#OFFSET      : -0.400000
#SIGNALTYPE  : EDS
#CHOFFSET    : 40.0000
#LIVETIME    : 30
#REALTIME    : 39.6227
#BEAMKV      : 50.0000
#PROBECUR    : 707000.
#MAGCAM      : 100.000
#XTILTSTGE   : 0.0
#AZIMANGLE   : 0.0
#ELEVANGLE   : 45.0
#XPOSITION mm: 0.0000
#YPOSITION mm: 0.0000
#ZPOSITION mm: 0.0000
##OXINSTPT   : 4
##OXINSTSTROB: 71.98
#SPECTRUM    : Spectral Data Starts Here
-0.40000, 0.
-0.26000, 0.
-0.12000, 0.
0.02000, 0.
0.16000, 0.
0.30000, 0.
0.44000, 43.
0.58000, 39.
0.72000, 32.
0.86000, 44.
1.00000, 47.
1.14000, 27.
1.28000, 86.
1.42000, 181.
1.56000, 249.
1.70000, 3234.
1.84000, 776.
1.98000, 57.
2.12000, 28.
2.26000, 40.
2.40000, 46.
2.54000, 35.
2.68000, 413.
2.82000, 255.
2.96000, 74.
3.10000, 40.
3.24000, 234.
3.38000, 355.
3.52000, 68.
3.66000, 1059.
3.80000, 150.
3.94000, 96.
4.08000, 100.
4.22000, 29.
4.36000, 62.
4.50000, 787.
4.64000, 143.
4.78000, 65.
4.92000, 179.
5.06000, 48.
5.20000, 54.
5.34000, 74.
5.48000, 73.
5.62000, 69.
5.76000, 76.
5.90000, 450.
6.04000, 104.
6.18000, 150.
6.32000, 7240.
6.46000, 10029.
6.60000, 194.
6.74000, 108.
6.88000, 215.
7.02000, 2288.
7.16000, 672.
7.30000, 79.
7.44000, 92.
7.58000, 69.
7.72000, 82.
7.86000, 101.
8.00000, 136.
8.14000, 156.
8.28000, 102.
8.42000, 117.
8.56000, 133.
8.70000, 141.
8.84000, 123.
8.98000, 128.
9.12000, 145.
9.26000, 127.
9.40000, 117.
9.54000, 131.
9.68000, 140.
9.82000, 129.
9.96000, 116.
10.10000, 109.
10.24000, 117.
10.38000, 148.
10.52000, 146.
10.66000, 130.
10.80000, 145.
10.94000, 147.
11.08000, 130.
11.22000, 132.
11.36000, 139.
11.50000, 159.
11.64000, 120.
11.78000, 138.
11.92000, 154.
12.06000, 157.
12.20000, 148.
12.34000, 158.
12.48000, 143.
12.62000, 147.
12.76000, 170.
12.90000, 174.
13.04000, 154.
13.18000, 148.
13.32000, 197.
13.46000, 163.
13.60000, 154.
13.74000, 145.
13.88000, 176.
14.02000, 306.
14.16000, 426.
14.30000, 173.
14.44000, 140.
14.58000, 143.
14.72000, 147.
14.86000, 178.
15.00000, 161.
15.14000, 150.
15.28000, 148.
15.42000, 163.
15.56000, 222.
15.70000, 531.
15.84000, 382.
15.98000, 168.
16.12000, 147.
16.26000, 166.
16.40000, 144.
16.54000, 143.
16.68000, 154.
16.82000, 147.
16.96000, 141.
17.10000, 148.
17.24000, 156.
17.38000, 190.
17.52000, 194.
17.66000, 216.
17.80000, 214.
17.94000, 230.
18.08000, 238.
18.22000, 263.
18.36000, 403.
18.50000, 559.
18.64000, 789.
18.78000, 861.
18.92000, 787.
19.06000, 593.
19.20000, 397.
19.34000, 281.
19.48000, 219.
19.62000, 206.
19.76000, 150.
19.90000, 231.
20.04000, 465.
20.18000, 556.
20.32000, 261.
20.46000, 153.
20.60000, 193.
20.74000, 215.
20.88000, 214.
21.02000, 242.
21.16000, 226.
21.30000, 189.
21.44000, 148.
21.58000, 134.
21.72000, 131.
21.86000, 116.
22.00000, 97.
22.14000, 80.
22.28000, 87.
22.42000, 78.
22.56000, 106.
22.70000, 132.
22.84000, 106.
22.98000, 77.
23.12000, 83.
23.26000, 57.
23.40000, 74.
23.54000, 63.
23.68000, 70.
23.82000, 68.
23.96000, 47.
24.10000, 62.
24.24000, 81.
24.38000, 65.
24.52000, 72.
24.66000, 67.
24.80000, 50.
24.94000, 62.
25.08000, 64.
25.22000, 76.
25.36000, 69.
25.50000, 70.
25.64000, 39.
25.78000, 53.
25.92000, 57.
26.06000, 62.
26.20000, 53.
26.34000, 60.
26.48000, 40.
26.62000, 40.
26.76000, 52.
26.90000, 47.
27.04000, 40.
27.18000, 50.
27.32000, 56.
27.46000, 56.
27.60000, 43.
27.74000, 41.
27.88000, 63.
28.02000, 48.
28.16000, 41.
28.30000, 34.
28.44000, 43.
28.58000, 39.
28.72000, 31.
28.86000, 40.
29.00000, 46.
29.14000, 36.
29.28000, 36.
29.42000, 33.
29.56000, 42.
29.70000, 41.
29.84000, 32.
29.98000, 27.
30.12000, 45.
30.26000, 46.
30.40000, 31.
30.54000, 29.
30.68000, 23.
30.82000, 27.
30.96000, 30.
31.10000, 39.
31.24000, 36.
31.38000, 29.
31.52000, 30.
31.66000, 37.
31.80000, 29.
31.94000, 37.
32.08000, 35.
32.22000, 29.
32.36000, 24.
32.50000, 21.
32.64000, 22.
32.78000, 26.
32.92000, 28.
33.06000, 31.
33.20000, 26.
33.34000, 28.
33.48000, 25.
33.62000, 17.
33.76000, 18.
33.90000, 15.
34.04000, 20.
34.18000, 19.
34.32000, 22.
34.46000, 22.
34.60000, 23.
34.74000, 13.
34.88000, 18.
35.02000, 16.
35.16000, 16.
35.30000, 10.
35.44000, 20.
35.58000, 19.
35.72000, 15.
35.86000, 17.
36.00000, 13.
36.14000, 22.
36.28000, 25.
36.42000, 8.
36.56000, 6.
36.70000, 13.
36.84000, 11.
36.98000, 10.
37.12000, 11.
37.26000, 14.
37.40000, 11.
37.54000, 13.
37.68000, 14.
37.82000, 8.
37.96000, 9.
38.10000, 12.
38.24000, 6.
38.38000, 10.
38.52000, 11.
38.66000, 7.
38.80000, 7.
38.94000, 9.
39.08000, 13.
39.22000, 9.
39.36000, 7.
39.50000, 4.
39.64000, 4.
39.78000, 5.
39.92000, 8.
40.06000, 3.
40.20000, 3.
40.34000, 4.
40.48000, 5.
40.55000, 0.
#ENDOFDATA   :